time_tick,acc_X_value,acc_Y_value,acc_Z_value
0.006565,0.723973,-2.517892,-9.656010
0.017710,0.612189,-2.504125,-9.653766
0.027254,0.509534,-2.431249,-9.567721
0.037278,0.513874,-2.384560,-9.466862
0.047250,0.512677,-2.497690,-9.499933
0.057434,0.470477,-2.563833,-9.436933
0.067227,0.527641,-2.618901,-9.401168
0.077205,0.559216,-2.675616,-9.366601
0.087231,0.576125,-2.695219,-9.288038
0.097551,0.640472,-2.809397,-9.322756
0.107366,0.683120,-2.855038,-9.392788
0.117301,0.749113,-2.738466,-9.389197
0.127313,0.692697,-2.667984,-9.413888
0.137231,0.663666,-2.688036,-9.450850
0.147282,0.663966,-2.628927,-9.462971
0.157232,0.662918,-2.587027,-9.478384
0.167415,0.651246,-2.486318,-9.504871
0.177290,0.608748,-2.424216,-9.570415
0.187241,0.578819,-2.327846,-9.600194
0.197582,0.668156,-2.264996,-9.644787
0.207582,0.658130,-2.315126,-9.648079
0.217567,0.647206,-2.366304,-9.553355
0.227466,0.590491,-2.390097,-9.420023
0.237371,0.555325,-2.459232,-9.298513
0.247290,0.670400,-2.439030,-9.250478
0.257369,0.780089,-2.497391,-9.360466
0.267433,0.899653,-2.591517,-9.381865
0.277355,1.063063,-2.557248,-9.375430
0.287426,1.125315,-2.628329,-9.289236
0.297143,1.108405,-2.799221,-9.174160
0.307380,1.094638,-2.849501,-8.869337
0.317334,1.084911,-2.979241,-8.892981
0.327282,1.417119,-2.919684,-9.184785
0.337522,1.744089,-2.873743,-9.631020
0.347333,1.871285,-2.834237,-9.972206
0.357536,1.856919,-2.828252,-9.867157
0.367324,1.692911,-2.805506,-9.538241
0.377168,1.367138,-2.809546,-9.178649
0.387382,1.047501,-3.038799,-8.508099
0.397437,0.677733,-3.497455,-7.643163
0.407627,0.413314,-3.846722,-7.002242
0.417512,0.920154,-3.353349,-6.825664
0.427433,2.658257,-2.276069,-8.403948
0.437279,4.007438,-1.926952,-10.582151
0.447187,4.938217,-1.935632,-11.935521
0.457432,5.041321,-2.102932,-11.916517
0.467461,4.518319,-2.465667,-10.982446
0.477567,3.702017,-2.989118,-9.594208
0.487427,2.778720,-3.616271,-8.025950
0.497480,1.701590,-4.213197,-6.698916
0.516062,0.519860,-4.343387,-4.564858
0.527175,1.418465,-3.513467,-4.386334
0.537465,2.972956,-2.524925,-4.593889
0.547438,4.978022,-2.009705,-5.010495
0.557346,6.556755,-2.173414,-5.728781
0.567592,7.344625,-2.804458,-6.662703
0.585129,8.130550,-3.430864,-5.786992
0.597424,8.357110,-3.347363,-4.638033
0.607293,8.787333,-3.406771,-3.931569
0.617430,9.040230,-3.983495,-3.158663
0.627421,9.482874,-4.286073,-2.150818
0.637220,10.187692,-4.074777,-1.208516
0.655759,10.962543,-3.989182,-1.013232
0.667522,11.054873,-4.330966,-1.513638
0.677403,11.312707,-5.043117,-1.686925
0.687367,10.774741,-5.570908,-1.115887
0.697227,10.021139,-5.439371,0.025140
0.707490,8.786136,-5.510602,1.434627
0.724904,6.919191,-5.375624,3.719375
0.737334,6.065178,-4.467291,5.399417
0.747255,5.648123,-3.073367,6.985333
0.757309,5.121979,-2.387853,7.715740
0.767297,4.864593,-1.857368,7.741778
0.777265,4.904099,-1.476677,7.366922
0.786978,5.610264,-1.468596,6.879834
0.797793,6.529221,-2.119393,6.580698
0.807815,7.070031,-3.356940,6.616313
0.817158,7.019002,-4.310166,7.287612
0.827642,6.617959,-4.538671,8.415470
0.837502,5.764246,-3.875004,9.117894
0.847584,4.753558,-2.955299,9.633564
0.856699,3.735088,-1.866048,9.589719
0.867665,2.670378,-0.794005,9.070458
0.877374,1.902560,-0.122707,8.624073
0.887282,1.723139,0.617128,8.203426
0.897372,2.167728,1.431784,8.034330
0.907586,2.558146,1.516332,7.931824
0.917546,3.069925,0.889478,7.961154
0.926663,3.249347,-0.043546,8.345288
0.937250,3.136067,-0.929732,8.930990
0.947263,2.853990,-1.344692,9.586277
0.957570,2.083329,-1.329129,9.982382
0.967730,1.219291,-0.773804,10.373848
0.977347,0.581363,0.021698,10.730896
0.987403,0.293899,0.753303,11.087794
0.996885,0.476912,1.038522,10.599509
1.007151,0.913121,1.004403,9.994952
1.016920,1.556885,0.848625,9.897983
1.027615,2.033199,0.378896,9.818672
1.037721,2.349843,-0.146052,9.587773
1.047353,2.534353,-0.512377,9.972356
1.057334,2.375582,-0.581662,10.459892
1.067638,1.670165,-0.235987,10.657571
1.077385,0.845632,0.155629,16.363905
1.087302,0.309162,-0.088589,10.041191
1.097161,0.656334,1.081021,10.770401
1.107704,0.957865,1.525759,10.169136
1.117543,0.574330,1.330625,10.529027
1.127214,0.532130,1.016375,10.069923
1.147223,0.668605,0.182564,10.025180
1.157257,0.681474,0.000599,9.755373
1.167312,0.633888,0.121660,9.596153
1.177548,0.543952,0.219975,9.510408
1.187198,0.224315,0.277139,9.938686
1.197567,-0.244367,0.410321,10.028621
1.206508,-0.423490,0.606054,10.060495
1.217538,-0.343730,0.791162,9.541534
1.227420,0.035615,0.778143,9.578645
1.237158,1.650711,0.521805,7.787718
1.247429,1.357860,1.157937,8.366537
1.257628,1.613151,1.083714,8.636194
1.267209,0.501154,0.229702,10.395247
1.276590,-0.261576,-0.287464,10.803772
1.287459,-0.492924,-0.105648,11.572188
1.297155,-0.245265,0.398798,10.764266
1.307440,-0.142310,0.518064,9.735471
1.317233,-0.021549,0.312604,9.203191
1.327698,0.573581,0.153384,9.228929
1.337130,1.109303,0.229552,9.102930
1.347049,-1.135790,0.006734,9.714970
1.357139,-0.546047,-0.147847,11.395909
1.367432,0.268759,-0.134080,9.901575
1.377212,0.128543,0.157275,9.626680
1.387177,0.009876,0.178823,9.805803
1.397769,-0.084099,0.225063,9.788295
1.407209,-0.085745,0.115225,9.841418
1.417891,-0.047287,0.058361,9.759114
1.427165,0.024242,0.110137,9.767494
1.437168,0.062401,0.071380,9.821516
1.447211,0.149044,0.173137,9.731281
1.457278,0.082154,-0.088738,9.743103
1.467740,-0.173735,-0.149044,9.839772
1.477701,-0.167002,-0.013169,9.821366
1.488380,-0.006435,0.006135,9.792634
1.507354,0.019753,0.020651,9.828998
1.517177,0.022446,0.043995,9.736668
1.527474,0.005387,0.019304,9.792784
1.537477,0.018855,0.043845,9.800566
1.547494,0.020202,0.023644,9.758516
1.558315,-0.018556,0.050130,9.794281
1.577286,-0.037560,-0.000599,9.777520
1.587146,-0.002993,0.028731,9.834385
1.597447,0.013019,0.009727,9.795328
1.607461,0.028432,0.015563,9.778119
1.617319,0.052375,0.030826,9.791288
1.628823,0.013468,0.054320,9.780214
1.637243,-0.004639,0.035316,9.771086
1.647165,-0.011822,0.023943,9.755972
1.667217,-0.014964,0.004040,9.790839
1.677740,-0.042199,0.011223,9.793083
1.687203,-0.003143,0.013169,9.806252
1.707115,0.046988,0.024841,9.781112
1.717161,0.037560,0.016910,9.778568
1.727258,0.024990,0.025290,9.818373
1.737171,0.000599,0.039805,9.779167
1.747243,-0.012720,0.002245,9.768841
1.757206,-0.027085,0.016610,9.786499
1.768989,-0.041301,0.023644,9.782908
1.776793,-0.014366,0.017059,9.780962
1.787445,-0.005836,0.009727,9.795927
1.797179,-0.000449,0.016461,9.798770
1.807201,0.011672,0.013318,9.793832
1.817458,0.028133,0.031126,9.788594
1.827603,0.033370,0.027085,9.772133
1.839270,-0.002095,0.022297,9.758516
1.847256,-0.006884,0.005986,9.790839
1.857155,-0.027385,0.010924,9.806102
1.867164,-0.008979,0.009577,9.797124
1.877662,-0.014515,0.020501,9.779765
1.887256,0.019154,0.011074,9.800865
1.897203,0.011971,0.011822,9.793981
1.908956,0.000748,0.018855,9.777072
1.917375,0.013618,0.030228,9.769140
1.927142,0.038758,0.020052,9.779316
1.937153,0.021399,0.045940,9.779466
1.947628,0.007931,0.015713,9.772283
1.957472,-0.014515,0.035316,9.771535
1.967420,-0.030378,0.010176,9.784554
1.979514,-0.031126,0.016910,9.767943
1.987031,-0.006135,0.019603,9.789043
1.997171,0.019454,0.034717,9.794879
2.007151,0.008679,0.016760,9.791288
2.017214,0.024990,0.028582,9.782608
2.028034,0.002245,0.038907,9.777670
2.037228,-0.005537,0.025290,9.788145
2.049543,-0.001496,0.032473,9.787696
2.057062,-0.012420,0.010625,9.788444
2.067240,-0.020501,0.020202,9.794131
2.077199,-0.013917,0.006584,9.771535
2.087140,-0.016161,0.028133,9.790689
2.096843,0.027684,0.017359,9.786050
2.107188,0.040254,0.029330,9.779616
2.120006,0.035465,0.022147,9.781711
2.127138,0.010625,0.030527,9.779167
2.137166,-0.005387,0.040853,9.786200
2.147162,-0.013318,0.022446,9.806102
2.157212,-0.005836,0.019304,9.795029
2.167310,-0.029031,0.018705,9.807898
2.177192,-0.030976,0.027534,9.785452
2.191478,0.005836,0.022147,9.765549
2.197059,0.025888,0.033370,9.792934
2.207147,0.029629,0.026487,9.823611
2.217167,0.036363,0.029330,9.772133
2.227194,0.015114,0.051926,9.783656
2.237289,-0.007632,0.025439,9.788893
2.247210,-0.015413,0.024093,9.791886
2.260367,-0.032921,0.014066,9.775874
2.267196,-0.010026,0.032772,9.801014
2.277214,-0.015713,0.003891,9.766896
2.287127,0.011971,0.013169,9.765100
2.297215,-0.002993,0.020202,9.783357
2.307791,0.015264,0.027385,9.792036
2.317171,0.023943,0.016760,9.782010
2.330194,0.015114,0.032173,9.775874
2.337151,0.011672,0.017957,9.782908
2.347176,-0.025589,0.001048,9.780064
2.357148,-0.026038,0.016910,9.792036
2.367210,-0.020651,0.031425,9.795029
2.377643,0.001796,0.010325,9.772433
2.387276,0.011672,0.041451,9.780214
2.398113,0.022147,0.032173,9.760461
2.407158,0.017808,0.009727,9.785601
2.417310,0.006435,0.005238,9.793682
2.427154,0.014066,0.020052,9.772283
2.437233,-0.004938,0.021848,9.771984
2.447344,-0.026936,0.003891,9.779915
2.457207,-0.017359,0.028881,9.776323
2.470935,-0.033670,0.012420,9.796376
2.477062,0.014815,0.020501,9.774977
2.487248,0.014815,0.037710,9.785003
2.497151,0.012271,0.035016,9.777820
2.507192,0.026487,0.033819,9.798770
2.517290,0.019304,0.030976,9.784853
2.527198,0.034119,0.043696,9.798321
2.541209,0.014216,0.008829,9.806402
2.547010,-0.000449,0.011971,9.812836
2.557148,0.005537,0.026487,9.779017
2.567161,-0.039057,-0.016161,9.798171
2.577193,-0.018556,0.027085,9.788893
2.587337,0.005686,0.032024,9.777072
2.597205,0.023344,0.026337,9.775126
2.611093,0.030228,0.037710,9.756271
2.617208,-0.010176,0.020351,9.807449
2.627151,0.002544,0.034418,9.793682
2.637141,0.008081,0.006584,9.761658
2.647218,-0.003891,0.034418,9.806701
2.657360,0.012420,0.021549,9.774228
2.667186,-0.020501,0.003741,9.784404
2.681221,-0.028582,0.039356,9.749238
2.686988,-0.015114,0.071080,9.769889
2.697273,0.011074,0.054021,9.774228
2.707156,0.006435,0.046838,9.778269
2.717223,0.035465,0.002694,9.789492
2.727437,0.005836,0.016610,9.794879
2.737278,-0.012570,0.018855,9.818074
2.751731,-0.012720,-0.011373,9.804456
2.767344,-0.020950,0.041451,9.791288
2.777150,-0.012121,0.058510,9.765250
2.787327,0.007183,0.026936,9.778418
2.797332,0.010325,0.038159,9.767943
2.807203,0.011074,0.037261,9.781112
2.821933,0.010176,0.007482,9.808347
2.837143,-0.011822,-0.004190,9.793682
2.847156,-0.018556,0.012570,9.787547
2.857340,-0.007183,0.011672,9.790689
2.867351,-0.005986,0.014665,9.785152
2.877294,0.002843,0.067938,9.804307
2.892078,0.010625,0.036962,9.767195
2.907153,-0.002095,0.033221,9.770787
2.917159,0.015713,0.030378,9.786649
2.927190,0.007482,0.025739,9.800715
2.937353,0.006584,0.008380,9.789941
2.947227,-0.010026,-0.004789,9.800416
2.961714,-0.006884,0.024990,9.777670
2.977140,-0.019454,0.029779,9.769290
2.987149,0.023793,0.034268,9.792634
2.997197,0.012271,0.027235,9.789043
3.007330,0.005686,0.032473,9.764502
3.017268,0.001197,0.027684,9.807000
3.031648,0.006435,0.030826,9.789492
3.047167,-0.003591,0.005088,9.770338
3.057152,-0.011074,0.007632,9.794879
3.067187,-0.002095,0.030078,9.784703
3.077443,-0.013318,0.042499,9.776473
3.087153,0.019304,0.054171,9.768093
3.102071,0.003143,0.036513,9.776623
3.117234,-0.013917,0.019454,9.774827
3.127138,0.008979,0.027983,9.817625
3.137195,-0.003442,0.021848,9.798770
3.147366,-0.006135,0.017059,9.771235
3.157090,0.002993,0.010774,9.793682
3.171823,0.005686,0.043995,9.781262
3.187244,-0.007931,0.030078,9.786948
3.197160,0.017359,0.034717,9.779466
3.207144,0.008979,0.025290,9.776772
3.217335,0.013318,0.020351,9.782309
3.227200,-0.002394,0.017957,9.774827
3.242422,-0.025439,0.000599,9.803109
3.257151,-0.002843,0.019304,9.796226
3.267114,-0.003591,0.009128,9.786050
3.277314,0.006285,0.025439,9.784554
3.287293,-0.002694,0.014066,9.786200
3.297209,0.014964,0.042199,9.781561
3.311878,0.013618,0.015264,9.777221
3.327133,-0.016610,0.012720,9.792036
3.337118,-0.006285,0.032473,9.805354
3.347241,0.001496,0.003741,9.799518
3.357360,-0.000449,0.012121,9.792335
3.367168,0.002394,0.025888,9.789642
3.381938,0.023045,0.033819,9.793532
3.397163,0.020351,0.039057,9.788145
3.407150,0.018556,0.017808,9.780364
3.417157,-0.006884,0.048335,9.787996
3.427380,-0.005537,0.022596,9.807299
3.437205,-0.000299,0.007632,9.792186
3.452630,0.002993,0.010176,9.793981
3.467412,0.017209,0.001945,9.790839
3.477295,-0.009128,0.044743,9.775575
3.487107,0.031126,0.033370,9.791437
3.497555,0.027684,0.036214,9.780663
3.507190,0.007183,0.044294,9.768093
3.522567,-0.001347,0.007931,9.785901
3.537374,-0.011523,0.018705,9.795627
3.547187,0.008679,0.005088,9.776922
3.567583,0.007632,0.019603,9.776024
3.577262,0.012869,0.029480,9.778568
3.592621,0.018256,0.026786,9.785302
3.607143,-0.002245,0.027834,9.790091
3.617145,-0.010774,0.023045,9.788893
3.627135,-0.019154,0.039356,9.794131
3.637274,-0.006584,0.010774,9.778418
3.647199,-0.010026,0.019603,9.786050
3.663069,0.007632,0.030677,9.802062
3.666754,0.007781,0.016161,9.779915
3.677172,-0.019753,0.017059,9.774677
3.687202,0.006435,0.049083,9.779466
3.697151,-0.006884,0.035016,9.790988
3.707237,-0.003591,0.018855,9.775276
3.717211,-0.008081,0.027983,9.790689
3.732989,-0.001945,0.015862,9.782459
3.736756,0.006435,0.025439,9.788594
3.747160,0.009727,0.016760,9.785601
3.757140,0.017209,0.017808,9.778718
3.767165,0.007482,0.044145,9.779466
3.777332,0.019753,0.031275,9.780513
3.787055,0.019005,0.029180,9.804905
3.803504,-0.012720,0.026786,9.789342
3.806693,-0.000449,0.005238,9.767494
3.817220,0.002245,0.043696,9.782608
3.827159,-0.013917,0.019603,9.780663
3.837156,0.000898,0.014216,9.779316
3.847263,-0.004938,0.031275,9.773031
3.857144,0.016910,0.031575,9.799518
3.872835,0.013767,0.024392,9.790240
3.876825,0.011971,0.030378,9.772732
3.887185,-0.007333,0.022596,9.782459
3.897133,-0.002394,-0.005836,9.780962
3.907198,0.000599,0.007931,9.783057
3.917270,-0.013618,0.018406,9.783955
3.927193,-0.014366,0.023045,9.802062
3.943974,-0.004639,0.030826,9.786050
3.946756,0.023195,0.016461,9.773630
3.957264,0.005088,0.020351,9.806102
3.967208,-0.004489,0.019603,9.785452
3.977144,-0.004489,0.015114,9.783955
3.987226,0.001197,0.011971,9.766148
3.997212,0.012420,0.015114,9.797423
4.013755,-0.005836,0.029031,9.768243
4.016666,-0.007033,0.013917,9.776024
4.027135,0.000898,0.026636,9.801164
4.037193,-0.016760,0.024691,9.785003
4.047193,0.014066,0.025439,9.768392
4.057335,0.013917,0.049681,9.778418
4.067213,0.016161,0.033969,9.777520
4.083817,0.013169,0.029330,9.782758
4.086653,0.011822,0.033819,9.782010
4.097159,0.002993,0.040404,9.781711
4.107146,0.003143,0.019454,9.776623
4.117175,-0.021399,0.018855,9.789941
4.127336,-0.004340,0.020052,9.776922
4.137188,-0.008979,0.019454,9.787397
4.153923,0.002993,0.020351,9.792036
4.156639,0.006135,0.036812,9.758965
4.166595,0.003442,0.025140,9.779017
4.177137,0.030078,0.033071,9.784105
4.187098,0.026038,0.020052,9.805354
4.197355,-0.002544,0.038159,9.793832
4.207188,-0.009428,0.030078,9.783506
4.224297,-0.022446,0.007781,9.793233
4.237152,0.020501,0.023344,9.793682
4.247142,-0.002544,0.021249,9.800715
4.257142,0.011223,0.022297,9.766746
4.267315,0.007781,0.010176,9.784554
4.277299,-0.001646,0.022895,9.788594
4.294700,0.006584,0.036214,9.777520
4.307136,0.017957,0.031275,9.798171
4.317158,-0.027235,0.035914,9.801763
4.327187,0.010924,0.017209,9.765549
4.337328,-0.001646,0.030826,9.790988
4.347203,0.007632,0.030826,9.793233
4.364884,0.002993,0.034867,9.759414
4.377131,0.014066,0.020202,9.795029
4.387181,0.002095,0.016610,9.776174
4.397158,0.004639,0.025439,9.799668
4.407209,-0.002993,0.036214,9.787397
4.417154,0.001197,0.007781,9.792186
4.434461,-0.000150,0.029180,9.773330
4.447151,0.005986,0.011971,9.778418
4.457138,-0.002993,0.019603,9.793682
4.467162,0.021848,0.045342,9.790539
4.477380,0.011074,0.013169,9.776323
4.487220,0.008979,0.013767,9.783806
4.504441,-0.023644,0.019903,9.790091
4.517274,-0.005238,0.006285,9.791737
4.527147,-0.013318,0.005088,9.772882
4.537194,-0.013318,0.000599,9.777969
4.547420,-0.000898,0.036363,9.806701
4.557196,-0.004938,-0.004789,9.767644
4.574712,0.020651,0.021549,9.794281
4.586798,0.010924,0.035016,9.791288
4.597219,0.035465,0.028582,9.803409
4.607183,0.002843,0.027684,9.788295
4.617300,0.001646,0.003143,9.800117
4.627184,0.007333,0.029031,9.790390
4.645359,-0.000299,0.006285,9.775276
4.657134,0.012420,0.029330,9.782758
4.666462,0.016610,0.012570,9.780064
4.677181,-0.013019,0.018256,9.779616
4.687246,-0.002993,0.027235,9.778269
4.697199,0.000150,0.026337,9.787846
4.714842,0.009727,0.031425,9.790988
4.727127,0.001197,0.011074,9.797573
4.737128,0.005537,0.014066,9.778119
4.747139,0.027085,0.022746,9.795178
4.757265,0.023344,0.017059,9.794430
4.767172,0.034867,0.039655,9.779765
4.785117,0.003741,0.026188,9.765250
4.797181,0.006435,-0.012271,9.777670
4.807144,-0.010475,0.042349,9.778119
4.817155,0.015264,0.023644,9.768841
4.827355,0.001347,0.029180,9.788744
4.837104,-0.014815,0.038608,9.799967
4.854843,0.000449,0.007632,9.772582
4.867268,0.012720,0.013169,9.777371
4.877213,-0.001048,0.013618,9.801014
4.887122,-0.014216,0.017808,9.814333
4.897341,0.009128,0.028582,9.784105
4.907200,0.003292,0.026487,9.782010
4.925389,0.007931,0.029779,9.777072
4.937234,0.004190,0.013767,9.808646
4.947152,-0.018406,0.010475,9.793532
4.957139,0.019903,0.018705,9.774977
4.967270,-0.002394,0.031575,9.788444
4.977211,0.000000,0.015713,9.799668
5.001602,-0.001347,0.031126,9.801014
5.017481,-0.010475,0.013767,9.781112
5.027224,0.017359,0.015563,9.799518
5.037238,-0.009577,0.020052,9.780064
5.047149,-0.004190,0.033819,9.796376
5.056752,0.010625,0.027385,9.786798
5.067260,0.001796,0.032622,9.777969
5.077138,0.016161,0.021848,9.789791
5.087193,0.000000,0.039805,9.795328
5.097243,-0.000599,0.024242,9.788444
5.107287,0.000000,0.026636,9.794131
5.117121,-0.026487,0.040703,9.782309
5.130931,-0.000748,0.029180,9.782908
5.147157,0.018256,0.041451,9.791886
5.157143,0.014665,0.020950,9.808497
5.166724,0.011971,0.028432,9.777670
5.177237,0.003591,0.045491,9.777072
5.187071,-0.003741,0.022596,9.768243
5.200841,-0.012271,0.020800,9.809394
5.217226,0.000449,0.033819,9.777520
5.227135,-0.001496,0.017957,9.785901
5.237118,-0.004489,0.036812,9.788744
5.247320,-0.009727,0.030976,9.789342
5.257194,0.012720,0.028881,9.781262
5.271356,0.013468,0.013318,9.754924
5.287221,0.034568,0.017059,9.772283
5.297145,-0.012121,0.013618,9.786649
5.307196,0.011822,0.023943,9.795927
5.317350,-0.003741,0.024093,9.781112
5.327192,-0.003741,0.015413,9.789043
5.342678,-0.004190,0.026786,9.794879
5.357212,0.004639,0.020501,9.793532
5.367153,0.008081,0.033670,9.780962
5.377179,0.000898,0.014515,9.800266
5.387308,-0.001048,0.000449,9.799668
5.397146,-0.004489,0.028582,9.788594
5.411431,-0.003292,0.021100,9.791587
5.427129,0.006734,0.033221,9.801014
5.437130,-0.003292,0.030078,9.776922
5.447197,-0.012420,0.022895,9.771086
5.457337,0.006584,0.032323,9.801763
5.467208,-0.015563,0.027085,9.776323
5.482064,0.000599,0.025739,9.800117
5.497242,0.001646,0.036214,9.790689
5.506976,0.007033,0.021100,9.771834
5.517158,-0.002544,0.022147,9.790390
5.527379,0.017059,0.018406,9.784404
5.547434,0.008530,0.018855,9.792036
5.562222,-0.003591,0.038159,9.814183
5.577278,0.005537,0.015862,9.789492
5.597495,0.004789,0.032921,9.772582
5.607323,-0.000748,0.019154,9.771385
5.617385,-0.008530,0.025739,9.787247
5.632098,-0.008530,0.031275,9.793083
5.647319,0.022596,0.037710,9.788744
5.657140,0.004489,0.019903,9.787996
5.667311,0.002245,0.024242,9.779167
5.677141,0.005537,0.007482,9.809394
5.687202,-0.015713,0.019903,9.764053
5.701746,-0.002095,0.010026,9.807000
5.706903,-0.001048,0.015862,9.773181
5.717223,0.010026,0.038458,9.768093
5.727140,0.012420,0.034268,9.809993
5.737200,0.005686,0.028881,9.773929
5.747191,0.019154,0.027235,9.783955
5.757187,0.005537,0.012121,9.779316
5.772226,-0.014515,0.020800,9.783806
5.776862,-0.020950,0.038758,9.765549
5.787123,-0.007482,0.022446,9.807898
5.797316,0.002245,0.004789,9.780813
5.807322,0.003891,0.008530,9.772582
5.817193,0.010026,0.009876,9.803409
5.827188,0.012720,0.004789,9.806102
5.843707,0.009727,0.043845,9.791737
5.846669,-0.001796,0.032323,9.797124
5.857227,-0.015713,0.016012,9.779167
5.867164,-0.019753,0.006734,9.811789
5.877298,-0.012271,0.027235,9.804307
5.887208,-0.004639,0.020351,9.791587
5.897215,0.009727,0.032772,9.790689
5.914989,0.012570,0.018855,9.802810
5.916496,-0.012570,0.031575,9.780962
5.927117,0.022297,0.030527,9.786649
5.937175,0.006584,0.046090,9.782608
5.947250,0.013917,0.034717,9.795627
5.957186,-0.013019,0.038608,9.799069
5.967205,-0.017508,0.011971,9.792485
5.983033,-0.019005,0.009876,9.782309
5.986743,-0.002843,0.010026,9.792784
5.997153,-0.004938,0.008081,9.771684
6.006886,-0.009577,0.029929,9.787098
6.017294,0.024691,0.022297,9.802810
6.027300,0.020950,0.027534,9.793233
6.037169,0.006135,0.019753,9.783506
6.053013,0.002245,0.024841,9.793383
6.056743,-0.008979,0.015563,9.779466
6.067265,0.013019,0.002843,9.790988
6.077135,0.013318,0.011074,9.796376
6.087338,0.016161,0.022596,9.788744
6.097458,-0.007333,0.027534,9.776623
6.107191,-0.003741,0.030228,9.790390
6.129383,-0.008380,0.032323,9.772433
6.137010,0.000748,0.036962,9.770038
6.147160,-0.002544,0.015264,9.795178
6.157311,0.007781,0.029629,9.813584
6.167144,-0.009876,0.036214,9.761209
6.177123,-0.016910,0.015264,9.783357
6.186482,-0.004938,0.018556,9.802511
6.197305,0.016311,0.024392,9.795627
6.207500,0.002993,0.014366,9.774378
6.217210,0.006734,0.029929,9.809544
6.227304,0.008081,0.029629,9.798919
6.237168,-0.007033,0.014216,9.765250
6.246988,0.021399,0.028283,9.792485
6.259293,-0.014964,0.022446,9.708685
6.267294,-0.018855,0.029779,9.824658
6.277136,-0.017658,0.022746,9.822563
6.287074,-0.015114,0.027385,9.739960
6.297381,-0.019304,0.019005,9.812088
6.307187,0.027385,0.017059,9.796376
6.317191,-0.002245,0.020501,9.789941
6.329934,0.005238,0.013917,9.777072
6.337138,-0.023195,0.018705,9.817026
6.347150,0.008530,0.043396,9.774827
6.357126,0.002544,0.028731,9.781860
6.367340,0.006435,0.017209,9.792634
6.377193,0.008081,0.007033,9.779316
6.387200,0.020950,0.017508,9.838425
6.400749,-0.018107,0.015114,9.759414
6.407025,-0.009876,0.023494,9.801912
6.417224,0.019005,0.030826,9.804756
6.427130,0.005836,0.018256,9.763005
6.437213,-0.018256,0.021549,9.812836
6.447199,0.026188,0.033071,9.784404
6.457184,0.023644,0.022446,9.776473
6.470619,0.002993,0.008230,9.768093
6.477030,0.004639,0.032173,9.804606
6.487142,0.003741,0.012420,9.777221
6.497170,0.006884,-0.001048,9.793981
6.506983,-0.011373,0.019454,9.780513
6.517175,0.004190,0.028881,9.764651
6.527183,0.029330,0.020351,9.782309
6.536588,0.019454,0.043995,9.785601
6.547139,0.007931,0.004789,9.780663
6.557141,-0.012420,0.009128,9.784853
6.567124,0.005537,0.027385,9.779167
6.577312,-0.023793,0.013468,9.780513
6.587290,-0.008979,0.018256,9.797872
6.597207,-0.001496,0.026487,9.782758
6.610316,0.003741,0.021549,9.788295
6.617102,0.001048,0.024093,9.792186
6.627131,0.001496,0.010924,9.770637
6.637028,0.011373,0.024841,9.809095
6.647298,0.007781,0.043995,9.795627
6.657189,-0.021549,0.031425,9.791587
6.667182,0.021698,0.035465,9.782010
6.680659,-0.014515,0.042499,9.794131
6.687035,-0.003143,0.018855,9.785452
6.697239,0.009278,0.033670,9.813435
6.707168,-0.006135,0.005088,9.801763
6.717300,-0.004938,0.002993,9.784105
6.727187,0.022446,0.038907,9.795627
6.737122,-0.007033,0.056266,9.784703
6.746620,0.025439,0.029480,9.780962
6.757101,-0.001496,0.025888,9.801164
6.767088,0.006884,0.016910,9.790839
6.776719,0.005537,0.024691,9.787696
6.787136,0.020052,0.029031,9.785601
6.797104,-0.012271,0.020052,9.780513
6.807099,0.005986,0.023344,9.805653
6.816613,0.027684,0.039057,9.772133
6.827080,-0.000299,0.024841,9.779316
6.837289,0.002394,0.019903,9.793083
6.847144,-0.008230,0.041152,9.790091
6.857243,-0.022895,0.024691,9.773779
6.867156,0.003442,0.039206,9.789193
6.877181,-0.009128,0.014815,9.801912
6.891310,0.003143,0.001945,9.791437
6.907136,0.006734,0.024093,9.779915
6.917113,-0.004489,0.030378,9.788594
6.927352,0.004789,0.035615,9.778718
6.937142,0.005238,0.018705,9.810891
6.947196,0.006285,0.023344,9.777371
6.960856,-0.008230,0.033670,9.776623
6.977114,-0.019603,0.012121,9.774528
6.987061,0.001347,0.023045,9.780962
6.997319,0.002843,0.013019,9.791288
7.007201,-0.009876,0.018855,9.791288
7.017200,-0.007333,0.026188,9.768692
7.031137,0.026038,0.009278,9.789492
7.047151,0.003891,0.023644,9.796076
7.057135,0.006584,0.007781,9.789791
7.067348,-0.000898,0.016311,9.781411
7.077186,-0.007632,0.017059,9.791437
7.087186,-0.008829,0.022895,9.766447
7.101513,0.034268,0.025140,9.783506
7.117333,0.003741,0.033370,9.806252
7.127135,0.010026,0.021698,9.778718
7.137139,0.009128,0.045641,9.797722
7.147189,-0.005088,0.029330,9.777670
7.157184,-0.023494,0.032921,9.794281
7.179984,0.005986,0.025589,9.789941
7.197244,0.005387,0.031874,9.798022
7.207318,0.018406,0.044294,9.782608
7.217085,-0.004190,0.032772,9.799368
7.227130,0.007333,0.019454,9.787996
7.236482,0.011373,0.019903,9.792634
7.247143,0.002095,0.023793,9.796525
7.257133,0.024990,0.033969,9.778119
7.267208,-0.005387,0.012869,9.793383
7.277310,0.003591,0.003591,9.787547
7.287139,-0.011223,0.005088,9.791288
7.297185,-0.010625,0.013767,9.767195
7.309870,0.012720,0.011373,9.788594
7.327132,0.006135,0.029629,9.781112
7.337015,-0.012420,0.026636,9.775276
7.347454,0.002694,0.034717,9.815380
7.357135,-0.023793,0.018556,9.780813
7.367125,-0.012869,0.009128,9.789642
7.380278,0.001646,0.032173,9.807898
7.397231,0.002245,0.030527,9.796076
7.407173,0.000449,0.015264,9.790988
7.417253,0.007482,0.012570,9.788893
7.427130,0.010475,0.021698,9.788744
7.437111,0.003143,0.025439,9.804307
7.448994,0.003143,0.019903,9.786200
7.467205,-0.005836,0.027534,9.784254
7.477129,0.024392,0.014665,9.793981
7.487214,-0.016910,0.043247,9.770637
7.497187,0.005387,0.019603,9.796226
7.507299,0.010774,0.018705,9.790689
7.520203,0.007931,0.038608,9.782459
7.537113,-0.013468,0.000000,9.792335
7.547137,-0.002694,0.015114,9.781860
7.557212,-0.009428,0.018705,9.783357
7.567196,-0.012271,0.007183,9.776473
7.577452,-0.009727,0.039356,9.785302
7.590073,0.009577,0.027085,9.792934
7.607235,0.014815,0.024990,9.773181
7.617203,0.014964,0.015413,9.775874
7.627314,-0.013917,0.037111,9.792784
7.647232,-0.005088,-0.000299,9.775725
7.659980,-0.004639,0.016760,9.796675
7.667156,-0.000748,0.025739,9.796525
7.677124,-0.001945,0.019753,9.799967
7.687042,-0.003741,0.024093,9.793383
7.697312,-0.003591,0.041301,9.800117
7.707289,0.024392,0.030677,9.804456
7.717142,0.013468,0.014066,9.782608
7.726658,-0.005537,0.009876,9.796226
7.737194,0.009428,0.021698,9.793981
7.747140,-0.003591,0.015264,9.785601
7.757125,-0.017359,0.018406,9.803259
7.767317,-0.010026,0.007931,9.772283
7.777182,-0.004340,0.015264,9.794281
7.787128,0.011822,0.027983,9.784254
7.800528,-0.004639,0.000748,9.790091
7.807062,0.002694,0.008679,9.773929
7.817206,-0.005537,0.043247,9.798620
7.827129,0.019005,0.020052,9.786050
7.837310,0.000599,0.006285,9.792485
7.847416,-0.000150,-0.000299,9.784404
7.857166,-0.009278,0.008829,9.764651
7.870799,-0.005088,0.015413,9.791737
7.877010,-0.007781,0.031874,9.791288
7.887234,0.000000,0.026786,9.767195
7.897243,-0.002694,0.027235,9.793532
7.907359,0.006285,0.016760,9.810592
7.917205,-0.004938,0.009876,9.790689
7.927185,-0.017957,0.001646,9.786649
7.941053,-0.001197,0.013468,9.802661
7.947003,-0.008230,0.008979,9.779316
7.957129,0.005238,0.025290,9.790390
7.967096,-0.003591,0.039356,9.791737
7.977313,-0.001945,0.019603,9.771834
7.987117,0.008230,0.027085,9.780513
7.997188,0.006584,0.029180,9.774079
8.010845,0.011523,0.019603,9.792186
8.017130,0.015413,0.021998,9.778418
8.027211,0.000150,0.015264,9.795627
8.037129,0.011074,0.004789,9.779316
8.047346,0.003891,0.007781,9.778418
8.057178,0.007931,0.006884,9.779616
8.067187,-0.005238,0.013169,9.790539
8.081109,0.001197,0.035465,9.794281
8.086974,0.005387,0.015563,9.783506
8.097236,0.007931,0.024242,9.787098
8.107201,0.023793,0.042648,9.798471
8.117304,-0.018406,0.028133,9.778119
8.127183,0.001197,0.007632,9.776323
8.137174,-0.020800,0.014515,9.772882
8.151453,0.005238,0.009876,9.789043
8.156929,-0.005238,0.018107,9.777221
8.167214,0.004789,0.023644,9.774228
8.177128,-0.013767,0.027235,9.767494
8.187097,0.006135,0.048784,9.778119
8.197184,0.001197,0.033819,9.780663
8.207179,-0.003143,0.024691,9.786050
8.221420,0.011223,0.028881,9.778269
8.226935,-0.003442,0.028283,9.776024
8.237088,0.008979,0.025739,9.782608
8.247138,-0.003741,0.026636,9.800117
8.257556,0.007033,0.021698,9.781711
8.267193,-0.003292,0.022446,9.798770
8.277283,0.008081,0.024093,9.803558
8.300152,0.004040,0.034717,9.778119
8.307060,-0.004190,0.033221,9.809694
8.317484,-0.026786,0.014815,9.783506
8.327220,-0.007482,0.016760,9.787996
8.337121,-0.005387,0.006584,9.784853
8.347131,0.011971,0.016760,9.787547
8.356486,0.008081,0.025589,9.778418
8.367148,-0.008530,0.013917,9.790689
8.377184,0.005088,0.019753,9.784404
8.387178,-0.007183,0.018256,9.791587
8.397268,0.002544,0.039057,9.787547
8.407181,-0.005387,0.022297,9.794131
8.417186,-0.010176,0.031874,9.771684
8.429902,0.002394,0.018705,9.761060
8.437150,0.001496,0.015563,9.799817
8.447237,-0.002394,0.011672,9.790988
8.457143,0.004040,0.021549,9.796525
8.467445,-0.003143,0.023793,9.776323
8.477185,0.008230,0.029180,9.775126
8.487179,0.031874,0.047437,9.789791
8.500242,0.004190,0.020052,9.779167
8.507080,-0.006884,0.015563,9.787996
8.517217,-0.005836,0.028731,9.779316
8.527125,-0.000748,0.012720,9.766746
8.537216,-0.003891,0.025140,9.792335
8.547182,0.018705,0.008679,9.802661
8.557177,-0.000150,0.037560,9.777820
8.570306,0.014515,0.002544,9.778418
8.577078,0.001646,0.033071,9.787846
8.587092,-0.016610,0.047886,9.781561
8.597136,0.014964,0.013917,9.797124
8.607290,0.007632,0.038907,9.773779
8.617196,-0.006884,0.023793,9.786948
8.627176,0.003292,0.031275,9.798770
8.641700,-0.022746,0.030228,9.766447
8.646918,-0.009278,0.007183,9.809993
8.657126,0.013767,0.030378,9.774677
8.667144,-0.010625,0.020351,9.787846
8.677306,0.004938,0.028133,9.804756
8.686951,0.010026,0.031425,9.782309
8.697159,-0.013019,0.020950,9.787247
8.710413,-0.019154,0.039506,9.782010
8.717140,0.020950,0.041002,9.787846
8.727124,-0.003143,0.034568,9.778568
8.737085,0.001646,0.026786,9.795328
8.747321,0.013019,0.014066,9.787397
8.757177,0.000299,0.009428,9.779167
8.767194,-0.005537,0.023344,9.790689
8.780747,-0.016910,0.006135,9.797423
8.787015,0.006884,0.016461,9.775874
8.797229,-0.005238,0.040104,9.775126
8.807183,-0.004789,0.030378,9.776323
8.817385,-0.000449,0.014964,9.785302
8.827285,-0.006734,0.018556,9.801463
8.837122,-0.000449,0.028133,9.793532
8.846985,0.013468,0.023793,9.794131
8.857118,-0.015713,0.023793,9.804007
8.867201,-0.003143,0.039356,9.771684
8.877125,0.007033,0.030228,9.793981
8.887213,0.011672,0.039805,9.786798
8.897202,-0.009577,0.030826,9.780064
8.907166,0.003741,0.016012,9.771385
8.921226,0.006884,0.019903,9.787846
8.937157,-0.007931,0.027534,9.780364
8.947129,0.014815,0.032622,9.796376
8.957187,-0.004340,0.002544,9.802212
8.967326,-0.008081,0.005686,9.772582
8.977126,0.006734,0.037111,9.784105
8.987077,-0.006584,0.023644,9.789642
8.997234,0.001646,0.023494,9.787098
9.007129,-0.004789,0.024093,9.776772
9.017198,0.021249,0.017359,9.781860
9.027198,-0.000150,0.010325,9.785751
9.037089,-0.011074,0.017658,9.785302
9.047181,0.015264,0.012271,9.797722
9.060808,-0.007482,0.019154,9.777820
9.077119,0.024392,0.017808,9.789791
9.087261,-0.012869,0.027684,9.796376
9.097299,-0.001197,0.001646,9.789193
9.107157,0.001646,0.031275,9.784554
9.117298,0.002694,0.023644,9.803858
9.131506,-0.011373,0.036363,9.779616
9.147144,-0.006135,0.012271,9.784404
9.157126,-0.007632,0.006884,9.792335
9.167343,-0.007183,0.038309,9.777670
9.177126,0.019005,0.013318,9.800416
9.187113,0.001646,0.014964,9.791886
9.201308,0.000000,0.027085,9.779167
9.217165,0.001646,0.028283,9.806252
9.227123,0.005986,0.019154,9.807299
9.237178,-0.011672,0.009876,9.788444
9.247278,-0.011074,0.040703,9.789941
9.257172,-0.024093,0.027085,9.798620
9.271918,-0.005986,0.017209,9.784105
9.287171,0.001796,0.025290,9.792485
9.297131,0.002544,0.038758,9.785003
9.307319,-0.015264,0.018556,9.789492
9.317349,-0.006584,0.036812,9.790988
9.327125,0.011523,0.036812,9.804307
9.339173,-0.003292,0.012720,9.787397
9.357129,-0.007781,0.028731,9.789193
9.367080,-0.019304,0.024242,9.802062
9.377270,0.008829,0.016012,9.779466
9.387162,-0.003741,0.020202,9.775425
9.397590,0.015563,0.029779,9.807599
9.415135,0.016461,0.009727,9.782758
9.427076,0.008979,0.026786,9.809694
9.437239,-0.003143,0.029031,9.778269
9.446901,-0.012420,0.027834,9.785302
9.457139,0.007333,0.029031,9.782159
9.466858,0.001945,0.022746,9.787247
9.476428,-0.004938,0.030826,9.784254
9.487231,-0.006734,0.031126,9.773031
9.497178,-0.010475,0.008979,9.779765
9.506508,0.017359,0.014216,9.794580
9.517233,-0.014515,0.006884,9.790091
9.527086,-0.002245,0.029929,9.815231
9.537070,0.013169,0.021549,9.783207
9.546787,-0.002843,0.013318,9.789791
9.557116,-0.008230,0.024541,9.781860
9.567233,-0.002843,0.015862,9.789193
9.577122,0.003591,0.022297,9.781262
9.587212,-0.014366,0.025739,9.792934
9.596992,-0.016760,0.033670,9.786050
9.607442,0.015413,0.032173,9.800117
9.621033,0.000000,0.024990,9.787397
9.637369,0.021100,0.024691,9.787247
9.647214,-0.002993,0.013767,9.771984
9.657309,0.006285,0.018705,9.795777
9.677186,0.000599,0.029031,9.793083
9.690765,0.013767,0.026188,9.794580
9.707222,0.011971,0.017059,9.789791
9.717176,0.011523,0.033370,9.785601
9.727283,-0.003143,0.028881,9.811041
9.737138,-0.008530,0.030677,9.776623
9.747132,-0.011971,0.031275,9.781711
9.760342,-0.002245,0.033969,9.794281
9.767074,-0.001347,0.019454,9.794281
9.777118,0.011971,0.029031,9.778718
9.787122,0.018556,0.001347,9.803858
9.797656,-0.000898,0.011223,9.781561
9.807182,-0.008081,0.021399,9.789342
9.817137,0.004040,0.025888,9.790390
9.830797,0.010774,0.028582,9.788594
9.837006,0.019304,0.028432,9.788444
9.847227,0.010774,0.018406,9.782758
9.857125,0.005537,0.011523,9.803858
9.867324,-0.008380,0.048634,9.770637
9.877120,-0.008829,0.020950,9.779316
9.887105,0.015114,0.033819,9.797872
9.900470,0.013019,0.025589,9.776473
9.907114,0.002993,0.009577,9.781561
9.917247,0.021998,0.026188,9.782758
9.927138,-0.004190,0.023344,9.790988
9.937155,0.018256,0.021399,9.792934
9.947178,0.005836,0.025439,9.788744
9.957174,0.027684,0.023793,9.796974
9.971035,-0.000449,0.039506,9.772133
9.976980,0.005836,0.029330,9.792485
9.987146,0.005088,0.021100,9.780064
9.997108,0.012271,0.023943,9.791437
10.007217,0.021848,0.015862,9.805504
10.017170,-0.008530,0.026636,9.755373
10.027197,-0.001048,0.033969,9.799219
10.036625,-0.000898,0.021848,9.785601
10.047209,-0.018256,0.017059,9.786200
10.057123,-0.008230,0.035016,9.804157
10.067132,0.002544,0.025439,9.790988
10.077301,0.004938,0.005686,9.775575
10.087167,-0.001347,0.025888,9.802511
10.097174,0.000748,0.016461,9.796076
10.111224,0.020501,0.030228,9.765250
10.117064,-0.006734,0.032921,9.770188
10.127111,0.003292,0.025439,9.802960
10.137090,0.007333,0.030826,9.774827
10.147328,0.002544,0.036214,9.790240
10.157172,-0.001197,0.017957,9.803858
10.167182,0.007333,0.031425,9.777072
10.177551,-0.004489,0.047586,9.773929
10.187177,0.000599,0.027085,9.782758
10.197129,0.014815,0.021399,9.784404
10.207116,-0.004190,0.015563,9.789043
10.217316,0.008081,0.026337,9.781860
10.227178,0.007183,0.017808,9.791886
10.237105,0.009727,0.036812,9.773480
10.251528,0.004190,0.032772,9.766297
10.256964,0.007033,0.042199,9.787846
10.267292,0.013318,0.016760,9.787098
10.277171,0.016311,0.019454,9.794281
10.287182,-0.002394,0.022895,9.795178
10.297299,0.004489,0.008679,9.804606
10.307165,-0.008979,0.027385,9.784703
10.322258,-0.005986,0.030677,9.796675
10.326821,0.014665,0.030078,9.777520
10.337110,0.010325,0.033221,9.783506
10.347124,0.009577,0.033071,9.789791
10.357189,-0.001496,0.031874,9.781561
10.367190,-0.001646,0.023045,9.783806
10.377173,-0.000748,0.022746,9.769589
10.392512,0.010625,0.019603,9.797273
10.396928,0.011373,0.004938,9.800117
10.407116,0.010325,0.027684,9.784554
10.417128,0.003591,0.014964,9.773480
10.427316,0.008679,0.030527,9.798770
10.437087,0.019454,0.056116,9.787397
10.447179,0.029779,0.023644,9.792335
10.461851,0.017658,0.023943,9.798620
10.466926,-0.008380,0.034568,9.742055
10.477113,0.001646,0.003143,9.794281
10.487119,-0.001048,0.040104,9.856382
10.497753,-0.016610,0.016461,9.757319
10.507175,-0.023195,0.017508,9.833038
10.517286,-0.005238,0.012271,9.795478
10.539951,-0.010325,0.026337,9.765250
10.547182,0.024691,0.026636,9.794580
10.557125,0.009278,0.040853,9.758965
10.567231,0.023494,0.029330,9.790539
10.577121,0.009577,0.027684,9.797872
10.587115,0.014366,0.005686,9.747442
10.596963,-0.025439,0.006435,9.809095
10.607109,-0.015413,-0.041301,9.743103
10.617124,0.073325,-0.015264,9.788893
10.627169,0.033071,0.126149,9.808646
10.637218,-0.001945,-0.053871,9.780813
10.647182,0.043546,0.080658,9.792634
10.657167,0.066890,0.004938,9.775725
10.670073,-0.039506,-0.016161,9.760312
10.677095,0.026188,0.049831,9.781411
10.687147,0.062700,0.046240,9.812687
10.697098,0.072876,-0.006584,9.777221
10.707297,0.037261,-0.035316,9.810442
10.717187,-0.012720,-0.023344,9.797573
10.727284,-0.002694,-0.030677,9.777371
10.740807,0.030078,0.028881,9.777221
10.747120,0.057463,0.064047,9.761359
10.757122,0.103852,0.053273,9.794131
10.767135,0.080059,0.031126,9.789791
10.777277,0.032921,-0.023344,9.790689
10.787158,-0.021100,-0.038159,9.766297
10.797223,0.006135,0.016311,9.814183
10.810497,0.021998,0.059558,9.792784
10.817117,0.078712,0.043396,9.788744
10.827130,0.051477,0.007632,9.805953
10.837068,0.022746,-0.002095,9.802212
10.847310,-0.020651,-0.017209,9.783207
10.857167,0.053871,0.042349,9.774677
10.867173,0.098914,0.055368,9.789941
10.881062,0.066292,0.025439,9.785302
10.886964,-0.005986,-0.020351,9.790240
10.897140,-0.022596,-0.008230,9.783357
10.907162,0.019603,0.039057,9.786349
10.917322,0.108641,0.029031,9.789492
10.927320,0.034568,-0.016161,9.785452
10.937112,-0.035166,-0.046240,9.779915
10.951331,0.124802,0.065993,9.782608
10.967156,0.059259,-0.015114,9.800266
10.977117,-0.021848,-0.041750,9.773779
10.987294,0.001646,0.026337,9.794430
10.997359,0.080957,0.062102,9.799219
11.007168,0.060456,0.001646,9.772433
11.021358,-0.008679,0.025739,9.781711
11.037102,0.078413,0.060456,9.757319
11.047122,0.084848,0.022446,9.796525
11.057214,0.004340,-0.021998,9.828848
11.067186,0.003292,0.011074,9.782010
11.077166,0.048335,0.057463,9.755373
11.092130,-0.004489,-0.022147,9.806851
11.107109,-0.013468,-0.018855,9.788145
11.117126,0.040404,0.040703,9.767943
11.127344,0.083201,0.023943,9.789941
11.137072,0.008380,-0.008081,9.793832
11.147167,-0.014216,0.006734,9.795777
11.161549,0.100410,0.043845,9.796675
11.177113,0.021100,-0.030976,9.795627
11.187118,-0.020950,-0.023793,9.788295
11.197523,0.026636,0.058211,9.804756
11.207165,0.104301,0.032772,9.800566
11.217167,0.007033,-0.026936,9.797124
11.232535,0.045491,0.050879,9.780663
11.247128,0.118218,0.045192,9.782608
11.257112,0.044893,-0.024541,9.781262
11.267341,-0.037261,0.005387,9.771984
11.277115,0.025589,0.055667,9.777221
11.287105,0.096220,0.026188,9.776623
11.301942,-0.025888,-0.017209,9.810741
11.317136,0.035316,0.050130,9.766447
11.327181,0.108491,0.033221,9.769140
11.337137,0.031126,-0.013468,9.799368
11.347174,-0.013019,0.011971,9.788893
11.357162,0.055218,0.068536,9.747143
11.372800,-0.011223,-0.027534,9.809245
11.387113,-0.017508,0.013318,9.791288
11.397402,0.054021,0.067339,9.759863
11.407294,0.067489,0.010774,9.792335
11.417183,-0.002095,-0.021399,9.825257
11.427170,0.022746,0.020651,9.788744
11.444299,0.056415,0.004340,9.797573
11.457111,-0.024093,-0.021698,9.771535
11.467115,0.014665,0.003143,9.796824
11.477196,0.078563,0.046988,9.780962
11.487170,0.046090,-0.025739,9.797124
11.497343,-0.021549,-0.033071,9.778718
11.513129,0.086793,0.069135,9.780962
11.527150,0.065095,0.001197,9.761209
11.537375,-0.043696,-0.028283,9.777820
11.547226,0.036962,0.049681,9.813584
11.557127,0.093976,0.062102,9.792784
11.567177,0.044294,-0.004040,9.774079
11.585742,0.010176,0.024541,9.808347
11.597161,0.090684,0.053722,9.799967
11.607075,0.046389,-0.003741,9.748190
11.617219,-0.041301,-0.020950,9.793083
11.627132,0.017658,0.038458,9.793532
11.637086,0.097268,0.077216,9.798171
11.647969,-0.046090,-0.040703,9.767345
11.667553,0.096669,0.063149,9.799967
11.687535,0.115225,0.029779,9.698210
11.697483,-0.166702,-0.021848,10.064985
11.707261,0.116273,0.001048,9.566075
11.722697,0.089636,-0.008081,9.731580
11.737207,0.025439,0.006734,9.741157
11.747121,0.041451,0.056864,9.721704
11.757224,0.060755,0.052974,9.815679
11.767164,-0.000748,-0.028582,9.829746
11.787107,0.057313,0.031575,9.843363
11.803308,0.078413,-0.040553,9.751932
11.817215,-0.033221,-0.002843,9.821366
11.827244,0.072876,0.028881,9.733376
11.837037,0.074971,0.005537,9.909955
11.847184,-0.007632,-0.039805,9.714670
11.857163,-0.015563,-0.003442,9.708834
11.873701,0.043097,0.086643,9.910403
11.876630,0.049233,-0.003292,9.751483
11.887137,-0.023943,-0.050280,9.718262
11.897405,-0.007482,0.028283,9.878081
11.907182,0.065843,0.051178,9.806851
11.917179,0.050879,-0.035914,9.698210
11.927277,-0.017508,-0.035016,9.871496
11.944394,0.016610,0.031126,9.789342
11.946561,0.068088,0.058211,9.731580
11.957073,0.055667,0.002245,9.820917
11.967214,-0.002843,-0.041152,9.741008
11.977110,-0.025290,0.003143,9.786948
11.987117,0.027235,0.060007,9.816278
11.997119,0.065394,-0.007333,9.759414
12.014070,-0.010176,-0.049981,9.816278
12.016585,-0.008979,0.028283,9.814482
12.027104,0.052375,0.038009,9.746844
12.037341,0.078563,0.002394,9.802511
12.047123,-0.002544,-0.025888,9.791886
12.057185,-0.014964,-0.001796,9.744150
12.067178,0.031425,0.053273,9.811938
12.085287,0.039955,0.011223,9.776473
12.086428,-0.036064,-0.054620,9.736818
12.097129,-0.023943,0.013468,9.860123
12.107316,0.059708,0.033221,9.787696
12.117124,0.073026,-0.011074,9.719758
12.127268,-0.000449,-0.041601,9.821665
12.137066,-0.008081,0.007632,9.806551
12.155939,0.059259,0.032323,9.776323
12.167193,0.001496,-0.040104,9.786200
12.177238,-0.000898,0.019603,9.815979
12.187173,0.035465,0.059857,9.810442
12.197388,0.049831,-0.002095,9.777520
12.207147,0.001945,-0.044294,9.801314
12.226110,0.050729,0.062102,9.771385
12.237264,0.065394,0.030527,9.788295
12.247234,-0.006584,-0.030378,9.805204
12.257110,0.002843,-0.002095,9.749687
12.267178,0.025290,0.063748,9.803858
12.276749,0.062401,0.013019,9.798022
12.297819,-0.001796,0.004938,9.826454
12.307110,0.057762,0.049382,9.799817
12.317274,0.063598,-0.009876,9.768991
12.327126,0.002843,-0.064795,9.812537
12.337257,-0.002544,0.026936,9.808347
12.347125,0.067788,0.064945,9.755373
12.362819,0.058510,0.020351,9.776772
12.366856,-0.026936,-0.036513,9.787547
12.377127,-0.027235,0.004639,9.807150
12.387200,0.048634,0.053123,9.804606
12.397386,0.041152,0.002843,9.753877
12.407100,-0.017209,-0.032024,9.773181
12.417122,-0.004190,0.007183,9.826454
12.433072,0.051477,0.035615,9.779316
12.436731,0.060456,0.002245,9.764502
12.447207,-0.000449,-0.019154,9.796974
12.457247,0.001048,0.010176,9.806402
12.467126,0.047586,0.046240,9.772283
12.477106,0.068836,-0.013767,9.782309
12.487161,-0.031275,-0.034867,9.769889
12.507801,0.064795,0.037111,9.790240
12.517209,0.069584,-0.022147,9.755074
12.527151,-0.009278,-0.042948,9.784254
12.537032,-0.016161,0.022147,9.799219
12.547173,0.055368,0.044893,9.776174
12.557106,0.071230,0.004040,9.809394
12.577806,-0.014964,0.004489,9.782010
12.587125,0.038309,0.052525,9.775575
12.597165,0.055218,-0.024841,9.773330
12.607110,-0.026337,-0.025888,9.774228
12.617115,-0.018107,0.015713,9.817326
12.627106,0.036064,0.047287,9.780962
12.645976,-0.017658,-0.030677,9.772582
12.657065,-0.009727,0.020052,9.785751
12.667169,0.030228,0.044594,9.803109
12.677071,0.043097,-0.011822,9.789642
12.687107,-0.012121,-0.021549,9.767943
12.697112,-0.012720,0.012121,9.790839
12.717434,0.054320,-0.028731,9.784404
12.727075,0.006285,-0.014216,9.800715
12.737209,-0.004489,0.041601,9.785003
12.747098,0.048634,0.033819,9.797872
12.757107,0.043097,-0.019005,9.787846
12.767312,-0.015264,-0.024990,9.765998
12.781021,-0.014964,0.040553,9.779316
12.786959,0.032473,0.023793,9.799967
12.797203,0.022297,-0.020501,9.795927
12.807243,-0.001496,-0.016610,9.773929
12.817359,0.011223,0.044294,9.784105
12.827166,0.065693,0.021249,9.801463
12.837067,0.068836,-0.025739,9.776473
12.855687,0.029330,0.037411,9.776473
12.867218,0.028432,0.007333,9.794281
12.877232,0.030826,-0.029180,9.786499
12.887160,-0.004789,0.005238,9.767345
12.897563,0.014366,0.056116,9.780663
12.907165,0.035765,0.010774,9.763903
12.926121,0.018556,0.009876,9.788744
12.937048,0.054171,0.038758,9.791138
12.947225,0.049532,0.029929,9.783057
12.957105,0.029629,-0.039955,9.810891
12.967300,-0.020202,0.012869,9.815679
12.977215,0.041601,0.061653,9.764202
12.997756,0.002095,-0.042199,9.808347
13.007110,-0.006135,0.012570,9.803259
13.017262,0.063149,0.051028,9.774977
13.027103,0.057014,-0.000150,9.777221
13.036994,-0.008979,-0.042199,9.781411
13.047170,-0.011223,-0.005537,9.788744
13.066516,0.042050,0.017508,9.783955
13.077089,-0.007183,-0.036812,9.778119
13.087146,-0.025290,0.030378,9.797722
13.097276,0.045641,0.055817,9.772433
13.107106,0.070183,0.000898,9.765100
13.117176,-0.019454,-0.028133,9.777221
13.137097,0.064945,0.039506,9.823461
13.147481,0.081855,-0.007931,9.768542
13.157219,-0.004190,-0.030228,9.791437
13.167322,-0.023195,0.042798,9.795927
13.177133,0.048185,0.037261,9.797423
13.187145,0.051477,-0.004040,9.787098
13.207384,-0.006884,0.018705,9.774827
13.217278,0.046988,0.045940,9.796675
13.227234,0.060605,-0.025739,9.788295
13.237024,-0.008530,-0.018855,9.788145
13.247174,-0.003591,0.034268,9.805953
13.257155,0.065095,0.032473,9.796824
13.277976,-0.008530,-0.015114,9.791288
13.287193,-0.010325,0.044294,9.788893
13.297317,0.031126,0.047138,9.785302
13.307105,0.034867,-0.023793,9.777072
13.317118,0.010774,-0.015413,9.774228
13.327103,0.009128,0.034119,9.780663
13.348720,0.038608,-0.033670,9.780813
13.357118,0.001347,-0.013318,9.778418
13.367295,0.001945,0.037111,9.784404
13.377210,0.044444,0.009727,9.771834
13.387024,-0.003292,-0.033520,9.780064
13.397138,-0.004639,0.004789,9.796675
13.418870,0.009428,-0.021698,9.790988
13.437305,-0.000449,0.005686,9.811789
13.447150,0.049681,0.053423,9.757618
13.457101,0.059259,-0.002544,9.779466
13.467118,-0.021549,-0.049831,9.819121
13.488286,0.059708,0.043396,9.771684
13.497169,0.068387,-0.006285,9.778269
13.507173,-0.010176,-0.025888,9.774677
13.517161,0.000150,0.024541,9.772433
13.527103,0.045641,0.052525,9.796076
13.537096,0.073026,0.018107,9.783357
13.554939,-0.029480,0.015264,9.794729
13.567200,0.063898,0.048484,9.809694
13.577236,0.055218,-0.029180,9.791437
13.587036,-0.003591,-0.013767,9.770787
13.597111,-0.014515,0.046539,9.785901
13.607099,0.045791,0.058061,9.788295
13.629221,-0.000748,0.017209,9.786050
13.647154,0.059109,0.025739,9.781561
13.657178,0.054171,-0.039057,9.802361
13.667122,0.014216,-0.001945,9.791587
13.677242,0.012271,0.050879,9.785003
13.695520,0.023943,-0.042050,9.785003
13.707145,0.007183,0.010325,9.792634
13.717154,0.051926,0.004639,9.781711
13.727169,0.051926,-0.050280,9.789941
13.737223,0.011523,0.012869,9.807599
13.747133,0.047138,0.050729,9.779765
13.766212,0.040254,-0.014815,9.779616
13.777089,-0.002095,0.016610,9.793981
13.787215,0.044893,0.064047,9.800416
13.797468,0.082603,0.000449,9.807449
13.807110,-0.013169,-0.054021,9.784853
13.817169,-0.008679,0.022746,9.790689
13.845412,0.045641,-0.009278,9.765549
13.846782,0.001945,-0.029929,9.780962
13.857131,0.023045,0.055069,9.775276
13.867084,0.054171,0.000748,9.787996
13.877107,-0.000898,-0.043247,9.797423
13.887066,0.000150,0.000150,9.801014
13.902072,0.047138,0.069584,9.786050
13.906787,0.051328,-0.004489,9.778119
13.917178,-0.013618,-0.042499,9.790240
13.927138,0.007333,0.037710,9.808197
13.937002,0.045791,0.058061,9.789342
13.947103,0.072278,-0.005088,9.784105
13.957101,-0.014515,-0.036962,9.781860
13.974395,-0.024242,0.053423,9.794430
13.976536,0.048035,0.023045,9.807449
13.987136,0.041301,-0.033071,9.795029
13.997349,0.010924,0.004639,9.799219
14.007107,0.017359,0.057912,9.763155
14.017100,0.048185,0.016760,9.786948
14.027101,0.010774,-0.025140,9.782010
14.050187,0.042199,0.039356,9.786050
14.057027,0.052076,-0.005836,9.773480
14.067230,-0.017209,-0.047138,9.820318
14.077107,0.007931,0.016461,9.796226
14.087193,0.060905,0.063000,9.783357
14.097105,0.081555,-0.004340,9.787696
14.115619,-0.010026,0.026337,9.784254
14.127098,0.027385,0.025439,9.792335
14.137332,0.046539,-0.022446,9.819421
14.147249,0.010325,0.003891,9.788893
14.157090,0.027684,0.049083,9.776922
14.167173,0.062850,0.009876,9.795478
14.189915,-0.006135,0.006135,9.791886
14.197157,0.054320,0.057014,9.782758
14.207233,0.057164,-0.005836,9.777371
14.217107,-0.013468,-0.026038,9.772882
14.227102,-0.036962,0.048035,9.773779
14.237117,0.056415,0.045791,9.794729
14.256000,0.005986,-0.012121,9.768392
14.267208,0.018406,0.071529,9.783806
14.277242,0.034568,0.012121,9.790539
14.287009,-0.000299,-0.052225,9.806701
14.297160,-0.004040,-0.018705,9.815679
14.307155,0.046240,0.066591,9.795478
14.330940,-0.019154,-0.065693,9.803708
14.336929,-0.013169,0.000000,9.808946
14.347295,0.050430,0.041750,9.797872
14.357164,0.070781,-0.035465,9.805204
14.367120,-0.001945,-0.022596,9.802062
14.377100,-0.013468,0.027235,9.770188
14.398731,0.035166,-0.052375,9.829147
14.407119,-0.002544,-0.012869,9.790988
14.417215,0.029629,0.056415,9.760760
14.427105,0.035765,0.011672,9.775126
14.436995,-0.027385,-0.032772,9.790988
14.446515,-0.023644,0.011074,9.816877
14.471259,0.074073,-0.006734,9.782309
14.476889,-0.013917,-0.032772,9.770637
14.487176,-0.006734,0.035166,9.794879
14.497245,0.066741,0.020351,9.797273
14.507096,0.048335,-0.030078,9.804756
14.517186,0.015563,0.008081,9.792485
14.538719,0.051926,0.005836,9.788295
14.547042,0.007931,-0.036962,9.793233
14.557166,-0.007183,-0.003442,9.771984
14.567082,0.060156,0.047437,9.777820
14.577093,0.082004,-0.000599,9.781561
14.587095,-0.008829,-0.043247,9.784554
14.606383,0.052525,0.039506,9.805653
14.617132,0.053123,-0.023943,9.793682
14.627230,0.011373,-0.024841,9.768243
14.636999,0.006884,0.048035,9.777371
14.647103,0.030228,0.015264,9.780663
14.657122,0.008081,-0.032473,9.773630
14.682286,0.022746,0.042199,9.797872
14.686759,0.052525,0.005088,9.762257
14.697230,-0.005387,-0.023494,9.787247
14.707106,-0.025589,0.005986,9.789342
14.717102,0.050130,0.034568,9.792934
14.727096,0.046090,-0.029779,9.783955
14.751089,-0.001646,0.054470,9.764502
14.756929,0.049831,0.033670,9.788145
14.767321,0.010625,-0.047886,9.783506
14.777067,0.008530,0.015114,9.782309
14.787018,0.037111,0.071080,9.770787
14.797123,0.063149,-0.011971,9.763005
14.816486,-0.017808,0.030228,9.796525
14.827056,0.030228,0.049382,9.801763
14.837342,0.059259,-0.010475,9.792186
14.847335,-0.002544,-0.017508,9.773031
14.857125,0.010924,0.041301,9.755972
14.867030,0.047586,0.015114,9.777520
14.893262,0.052824,0.050130,9.790539
14.907180,0.061204,-0.016012,9.767045
14.917071,-0.009278,-0.041750,9.773929
14.927061,-0.022446,0.032323,9.801014
14.937093,0.051028,0.040104,9.805055
14.953546,-0.005836,-0.002245,9.785452
14.967127,0.012720,0.049233,9.763454
14.977230,0.039805,0.009577,9.776323
14.987071,-0.007632,-0.051328,9.789642
14.997103,-0.007033,-0.018256,9.809394
15.007095,0.044594,0.081256,9.789342
15.026001,-0.027983,-0.047437,9.771385
15.037181,-0.012869,0.008230,9.776922
15.047453,0.048035,0.047586,9.824209
15.057103,0.061503,-0.037860,9.779167
15.067109,0.008230,-0.017658,9.776024
15.077148,0.022596,0.044893,9.787547
15.101773,-0.016012,0.018107,9.783806
15.117229,0.046389,0.065394,9.821366
15.127082,0.077814,-0.018705,9.761359
15.136985,-0.015862,-0.010625,9.782758
15.147096,-0.032173,0.058660,9.779915
15.167464,-0.004190,-0.029929,9.783057
15.177105,-0.007781,0.010026,9.784853
15.187200,0.052974,0.049681,9.801014
15.197388,0.059857,-0.012121,9.778718
15.207157,-0.014815,-0.041451,9.780214
15.217143,-0.011223,0.026188,9.783806
15.241249,0.013767,-0.022746,9.773480
15.257219,0.016461,0.043097,9.789791
15.267114,0.038608,0.019454,9.788594
15.277084,0.008829,-0.051627,9.774827
15.287097,-0.018256,0.026038,9.809694
15.308010,0.068237,-0.024093,9.795627
15.317158,-0.012869,-0.002694,9.792186
15.327163,-0.005537,0.062251,9.777969
15.336993,0.034867,0.024242,9.772133
15.347106,0.019753,-0.033819,9.794281
15.357094,-0.007333,0.030976,9.802661
15.378656,0.065095,0.001197,9.786649
15.387176,-0.014815,-0.023943,9.773929
15.397227,-0.001496,0.029929,9.792036
15.407146,0.036363,0.043396,9.780214
15.417076,0.041301,-0.026936,9.779316
15.427094,0.003292,-0.022297,9.790390
15.447228,0.056715,-0.003591,9.778119
15.457064,-0.018855,-0.025589,9.786349
15.467155,-0.009278,0.030677,9.779915
15.477062,0.048335,0.054470,9.790390
15.487076,0.054171,-0.004789,9.797573
15.497110,0.002095,-0.010325,9.782758
15.516311,0.037261,-0.004190,9.781262
15.527050,0.000150,-0.040853,9.811789
15.537092,-0.014815,0.013767,9.779466
15.547106,0.057463,0.026188,9.781860
15.557094,0.066142,-0.008380,9.784105
15.567113,-0.000898,-0.027834,9.782908
15.590428,0.022596,-0.027684,9.805504
15.607163,-0.005387,0.004040,9.787846
15.617062,0.058211,0.046389,9.766746
15.627091,0.075869,-0.002394,9.785452
15.636997,-0.010475,-0.029480,9.775276
15.660420,0.040254,-0.020651,9.786200
15.677261,0.011822,0.061054,9.776922
15.697379,0.038309,0.008530,9.778568
15.707201,-0.009128,-0.048784,9.802511
15.727013,0.047437,0.063149,9.789791
15.737138,0.067040,0.003442,9.780513
15.747269,-0.008530,0.030976,9.789642
15.757105,0.046389,0.016161,9.778119
15.767208,0.035914,-0.029330,9.802212
15.777298,0.010325,0.004938,9.787247
15.803817,0.038907,-0.000898,9.757319
15.817264,-0.004040,0.027534,9.777072
15.827058,0.064795,0.058810,9.834086
15.836979,0.056565,-0.008829,9.792186
15.847091,0.015563,0.000898,9.801613
15.867638,0.039356,0.004489,9.771535
15.877066,0.004040,-0.046838,9.797573
15.887277,-0.006285,0.013019,9.800566
15.897502,0.060456,0.040853,9.795178
15.907190,0.077665,-0.038458,9.773779
15.917096,0.000449,-0.054620,9.784254
15.941788,0.046090,0.014815,9.788295
15.946828,0.010774,-0.044145,9.807000
15.957155,0.005537,0.014964,9.801014
15.967069,0.065244,0.070183,9.783656
15.977095,0.058510,-0.013019,9.775874
15.987089,-0.007781,-0.038458,9.773330
16.009065,0.033071,0.028133,9.773929
16.017050,0.026936,-0.022746,9.788594
16.027200,0.010475,-0.007931,9.790539
16.036982,0.017658,0.055817,9.764202
16.047059,0.048335,0.001048,9.764352
16.057094,-0.005238,-0.050430,9.801314
16.072046,-0.014665,0.018855,9.806252
16.076784,0.057613,0.038907,9.791886
16.087066,0.052974,-0.008230,9.795777
16.097533,0.001197,-0.021698,9.793981
16.107090,0.014515,0.051627,9.771086
16.117103,0.048185,0.015713,9.800715
16.127180,0.005387,-0.052076,9.801164
16.143644,-0.005238,0.003143,9.805504
16.146728,0.044294,0.048933,9.808497
16.157096,0.064646,-0.030378,9.782309
16.167206,-0.025739,-0.030826,9.783955
16.177097,-0.017508,0.027235,9.782159
16.187079,0.043845,0.015114,9.805653
16.197718,0.020800,-0.019154,9.803109
16.218955,0.049083,0.073175,9.782758
16.227065,0.063598,-0.000748,9.771684
16.237096,-0.004489,-0.032772,9.775126
16.247098,-0.020351,0.022147,9.760012
16.257090,0.066890,0.049532,9.816128
16.267105,0.058211,-0.026038,9.798171
16.288740,0.006285,0.046090,9.768841
16.297302,0.060156,0.013169,9.793233
16.307183,0.003741,-0.042499,9.804307
16.317111,-0.003292,0.025589,9.805204
16.327084,0.043247,0.053423,9.795478
16.337002,0.068836,-0.000748,9.774528
16.359643,-0.000748,0.068686,9.770188
16.367126,0.031724,-0.001048,9.788145
16.377162,0.000299,-0.033071,9.805953
16.387082,0.003143,-0.012121,9.799069
16.397199,0.049831,0.054021,9.795029
16.407092,0.070332,-0.011822,9.786349
16.430012,-0.021100,0.025439,9.801763
16.437039,0.039805,0.043546,9.788744
16.447213,0.044893,-0.058660,9.804157
16.457135,0.010176,0.013318,9.804007
16.467107,0.058660,0.042199,9.790390
16.477084,0.059109,0.005238,9.796076
16.494316,-0.023494,0.035465,9.800266
16.507062,0.042948,0.049981,9.804007
16.517120,0.059708,-0.004639,9.785452
16.527086,0.000748,0.002095,9.796376
16.536994,0.031275,0.073026,9.779167
16.547149,0.055218,-0.015413,9.775725
16.570736,-0.018107,0.028731,9.790091
16.576994,0.051776,0.045641,9.793832
16.587298,0.044594,-0.026936,9.776323
16.597450,0.007183,-0.014216,9.775425
16.607090,0.016910,0.064496,9.783207
16.617107,0.047287,0.005387,9.790240
16.637053,-0.014366,0.008679,9.793083
16.647184,0.053423,0.061952,9.788893
16.657187,0.077365,-0.027385,9.812986
16.667134,0.004938,-0.033819,9.781860
16.677074,0.013468,0.048185,9.763155
16.687087,0.051926,0.020351,9.787846
16.711112,0.016311,0.019005,9.799668
16.716991,0.054620,0.067190,9.779466
16.727112,0.067489,-0.008829,9.790839
16.736954,0.000000,-0.011523,9.780813
16.747101,0.008530,0.059109,9.782010
16.757071,0.042948,0.015713,9.779316
16.779124,-0.018705,0.033819,9.803259
16.786944,0.055368,0.050579,9.775425
16.797144,0.060156,-0.016311,9.803708
16.807170,0.002544,-0.017508,9.784554
16.817066,0.017658,0.044594,9.768243
16.827080,0.037261,0.018406,9.812387
16.846594,-0.015114,0.016161,9.795627
16.857046,0.068237,0.066142,9.800117
16.867228,0.075270,-0.010475,9.790539
16.877094,-0.002843,-0.037411,9.778718
16.886958,0.009876,0.065693,9.760162
16.897088,0.031575,0.015563,9.790988
16.919952,-0.009577,0.016311,9.795478
16.927041,0.036214,0.054769,9.804007
16.936495,0.051926,-0.019454,9.789043
16.947160,0.000599,-0.018855,9.779167
16.957075,0.003591,0.030976,9.779616
16.967093,0.051926,0.022446,9.793981
16.986880,-0.017059,0.011822,9.801763
16.997136,0.065693,0.063449,9.808946
17.007181,0.061503,-0.038758,9.785302
17.016969,0.018705,-0.010325,9.778119
17.027089,0.025589,0.034717,9.782159
17.037230,0.035765,0.023494,9.779167
17.060784,0.064646,0.046389,9.801014
17.077098,0.068536,-0.012121,9.785003
17.086968,0.009727,-0.029480,9.769290
17.096796,0.035615,0.050879,9.772582
17.107069,0.042199,0.008081,9.803259
17.132968,0.047736,0.045043,9.805204
17.147108,0.059109,-0.010625,9.782758
17.157167,0.018855,-0.028283,9.775575
17.167068,0.033670,0.057014,9.791587
17.177081,0.060306,-0.008380,9.780364
17.193068,-0.019903,0.045192,9.809544
17.207052,0.044893,0.054470,9.785302
17.217171,0.030976,-0.034119,9.781262
17.227088,-0.008230,-0.009876,9.772582
17.236947,0.040104,0.056864,9.791886
17.247090,0.064047,-0.022297,9.771984
17.268517,-0.013468,0.037860,9.787547
17.277029,0.054620,0.048634,9.802361
17.287133,0.001496,-0.031874,9.792485
17.297520,0.006884,-0.009727,9.781112
17.307080,0.059259,0.065095,9.779466
17.317097,0.070781,-0.010774,9.782309
17.335730,-0.014066,0.053273,9.787397
17.347086,0.044444,0.019603,9.805504
17.357188,-0.002993,-0.038907,9.783806
17.367234,0.001646,0.019154,9.818672
17.377083,0.065693,0.053572,9.794580
17.387077,0.043696,-0.014964,9.783955
17.407961,0.008081,0.048185,9.773630
17.417122,0.036663,0.002694,9.790091
17.427130,0.007781,-0.064197,9.792036
17.436968,-0.040254,0.032323,9.800117
17.447078,0.057613,0.056116,9.801164
17.457085,0.060007,-0.020651,9.790539
17.473672,0.016161,0.055817,9.778269
17.487095,0.043845,-0.000748,9.773929
17.497579,0.003292,-0.064197,9.765549
17.507208,0.000748,0.023793,9.811489
17.516873,0.036214,0.038159,9.800416
17.527082,0.049681,-0.011074,9.782608
17.551373,0.039356,-0.005986,9.782010
17.567226,-0.017658,-0.058810,9.792036
17.577088,-0.021848,0.019603,9.792784
17.586959,0.055368,0.044594,9.808946
17.597094,0.062850,-0.019304,9.794430
17.616649,0.046090,0.048484,9.775276
17.627076,0.064795,0.005537,9.776922
17.637289,-0.019454,-0.047287,9.786499
17.647633,0.052225,0.061354,9.792784
17.667159,0.051776,-0.026038,9.793532
17.691004,0.040404,0.029180,9.766597
17.707275,-0.019304,0.044893,9.794131
17.727180,0.034568,0.060306,9.797124
17.737109,0.040404,-0.010026,9.790539
17.758209,0.073774,-0.019753,9.774378
17.767245,0.003891,-0.054320,9.775575
17.777118,-0.017359,0.041152,9.777820
17.786969,0.035914,0.053722,9.798022
17.797104,0.057912,-0.028731,9.774677
17.807078,0.018556,-0.008679,9.798620
17.825514,0.018256,0.056116,9.793682
17.826609,0.048634,-0.000599,9.771984
17.837098,-0.027684,-0.057912,9.796974
17.847757,-0.019753,0.039655,9.791886
17.857066,0.046240,0.055518,9.785302
17.867077,0.059259,-0.020501,9.797273
17.877067,0.001646,0.005686,9.800715
17.903091,0.035016,0.013917,9.786499
17.906639,-0.005686,-0.047586,9.793233
17.917149,-0.021399,0.014515,9.792335
17.927134,0.052674,0.050879,9.795178
17.936949,0.063449,-0.021698,9.776922
17.947103,0.002095,-0.019005,9.784554
17.970095,0.045791,0.013917,9.786948
17.977018,-0.007632,-0.042199,9.784254
17.987128,-0.017808,0.035765,9.788893
17.997118,0.036812,0.026038,9.801912
18.007084,0.055069,-0.033221,9.799368
18.017099,0.010176,0.010176,9.788594
18.036952,0.048185,0.013468,9.771535
18.047119,-0.020501,-0.046090,9.793981
18.057400,-0.014216,0.026038,9.779915
18.067168,0.055069,0.047437,9.793981
18.077077,0.068237,-0.043696,9.799518
18.087076,0.007781,0.008230,9.782908
18.110802,0.080807,-0.010325,9.782010
18.117022,-0.011223,-0.040703,9.784853
18.127120,-0.018855,0.024392,9.780364
18.136949,0.033969,0.036812,9.779616
18.147103,0.010475,-0.023793,9.798770
18.157152,-0.008081,0.016461,9.783357
18.179234,0.073624,-0.006435,9.816128
18.186930,0.010325,-0.039955,9.773181
18.197151,0.000898,0.037560,9.784404
18.207035,0.048784,0.033969,9.795478
18.217060,0.011373,-0.046389,9.810143
18.227064,0.003442,0.017957,9.804307
18.242804,0.043546,0.050879,9.804157
18.247078,0.066292,-0.035615,9.776623
18.257053,-0.008530,-0.009577,9.785452
18.267188,0.016161,0.039057,9.777371
18.277075,0.060755,0.002394,9.801763
18.286956,0.004789,-0.051178,9.798770
18.297054,-0.026636,0.025290,9.787696
18.318081,0.042199,-0.021249,9.790091
18.327091,0.004190,-0.005537,9.768243
18.337040,0.038608,0.056415,9.790539
18.347598,0.053123,-0.005537,9.800865
18.357058,-0.024691,-0.038907,9.768841
18.367084,0.006285,0.036064,9.788444
18.385122,0.052375,-0.030078,9.815231
18.397081,0.000748,0.016161,9.800865
18.407205,0.042798,0.055368,9.788594
18.417174,0.084548,-0.010026,9.775575
18.427067,0.001496,-0.022297,9.754625
18.437074,0.009428,0.054470,9.777371
18.459505,-0.007632,-0.037560,9.800715
18.467210,-0.031126,0.016610,9.770936
18.477107,0.048933,0.042050,9.791138
18.486946,0.043845,-0.019154,9.811489
18.497152,-0.000299,0.004789,9.765848
18.507067,0.048933,0.069883,9.794729
18.526147,-0.026786,-0.030228,9.781112
18.537050,-0.015114,0.039057,9.778119
18.547713,0.057164,0.025140,9.794281
18.557039,-0.010924,-0.041301,9.792634
18.567092,0.007033,0.027085,9.811938
18.577129,0.047736,0.044743,9.775276
18.601413,0.002544,-0.016311,9.780663
18.606848,0.023344,0.045342,9.765699
18.617208,0.037411,0.020351,9.774079
18.627072,-0.015563,-0.054470,9.792036
18.636937,-0.033520,0.044145,9.771385
18.647123,0.050130,0.046988,9.799817
18.666906,0.000898,0.005986,9.788893
18.677070,0.038758,0.035765,9.776323
18.686961,0.065095,-0.034867,9.780813
18.697639,0.001496,-0.039955,9.763155
18.707079,-0.025739,0.049981,9.795927
18.717134,0.024541,0.020651,9.791737
18.741154,-0.005836,0.018256,9.821067
18.746984,0.051028,0.040404,9.769440
18.757153,0.070332,-0.014815,9.789193
18.767201,-0.003591,-0.009278,9.790091
18.777036,0.020950,0.049831,9.764202
18.787061,0.055667,0.006734,9.799668
18.807907,-0.029480,0.044594,9.802511
18.817112,0.059558,0.018705,9.798620
18.827196,0.027534,-0.043247,9.811489
18.836930,-0.000898,0.013767,9.784554
18.847062,0.052824,0.062700,9.788444
18.857060,0.072876,-0.021998,9.794580
18.872299,-0.002993,0.059259,9.761958
18.887045,0.042050,0.003591,9.801314
18.897287,-0.017808,-0.061653,9.792186
18.907037,-0.023195,0.026487,9.779017
18.917062,0.039356,0.041900,9.824808
18.927042,0.058660,-0.033370,9.806102
18.946729,0.041750,0.057014,9.811639
18.957041,0.063598,-0.021249,9.760162
18.967119,-0.012570,-0.035765,9.759563
18.977039,0.005836,0.040553,9.790390
18.987089,0.047736,0.010475,9.781411
18.997339,-0.004190,-0.030378,9.784554
19.016006,0.054919,0.045192,9.797872
19.027022,0.057014,-0.027534,9.795627
19.037035,-0.003442,-0.017808,9.800117
19.047086,0.042798,0.059259,9.777221
19.057073,0.080807,-0.006285,9.775874
19.067125,-0.019005,-0.030378,9.780962
19.092322,-0.000150,-0.031724,9.812537
19.107115,-0.002993,0.023494,9.804007
19.117077,0.044893,0.074223,9.785302
19.127062,0.069434,-0.023644,9.800416
19.136975,0.004938,-0.032024,9.783506
19.159637,0.060755,0.014216,9.774827
19.167124,-0.018107,-0.030378,9.783506
19.177092,-0.027085,0.032173,9.782908
19.187037,0.040254,0.040853,9.788744
19.197413,0.018256,-0.037111,9.792934
19.207088,0.000599,0.020052,9.793532
19.227217,0.072128,-0.027684,9.781112
19.236967,0.010176,-0.012121,9.792784
19.247195,0.030078,0.062850,9.768841
19.257072,0.056715,-0.001197,9.771684
19.267177,0.000748,-0.030826,9.800117
19.277072,-0.032173,0.033071,9.777670
19.305742,-0.000898,0.011074,9.802661
19.317197,0.045192,0.075570,9.807898
19.327046,0.071529,-0.020202,9.793383
19.336937,-0.009278,-0.000898,9.789791
19.347078,0.018406,0.053423,9.767045
19.362471,-0.007033,-0.030976,9.779466
19.377031,-0.023344,0.028133,9.785452
19.387130,0.038159,0.045043,9.795627
19.397484,0.023793,-0.049532,9.797273
19.407079,-0.007333,-0.000599,9.810143
19.417075,0.071080,0.060007,9.806851
19.438346,0.015114,-0.014815,9.793682
19.447140,0.032473,0.046988,9.784254
19.457127,0.059558,0.005986,9.774228
19.467097,-0.012570,-0.040104,9.800117
19.477079,-0.021549,0.030378,9.813884
19.487152,0.031724,0.043247,9.787996
19.504684,0.012420,0.008230,9.810592
19.517209,0.069883,0.078413,9.780513
19.527208,0.057762,-0.023943,9.798770
19.536914,0.003741,-0.014964,9.801912
19.547148,0.055817,0.058810,9.773031
19.557068,0.056864,0.002394,9.776922
19.578970,0.039955,0.037560,9.808197
19.597895,0.026188,-0.052674,9.800416
19.607076,0.010176,0.022746,9.787098
19.617091,0.051926,0.068985,9.780364
19.627073,0.062700,-0.024093,9.772582
19.646921,0.025439,0.052225,9.787397
19.657041,0.052225,0.011971,9.787247
19.667129,-0.000299,-0.037411,9.781860
19.677071,-0.020950,0.031874,9.803109
19.687067,0.028582,0.060007,9.782309
19.697544,-0.008679,-0.001496,9.774977
19.716854,0.056565,0.047287,9.774378
19.727232,-0.010625,-0.026786,9.803858
19.747485,0.040404,0.022596,9.768991
19.767455,-0.028432,0.038758,9.805204
19.784698,0.046689,0.030378,9.806252
19.797691,0.019903,0.004789,9.795328
19.807197,0.054769,0.089337,9.782608
19.817072,0.056266,-0.017658,9.770038
19.827068,0.008829,-0.030826,9.779466
19.836941,-0.010924,0.089786,9.773630
19.860672,-0.019454,-0.036812,9.801613
19.867032,-0.016161,0.036214,9.785901
19.877144,0.052375,0.041601,9.797423
19.887069,0.049681,-0.002993,9.779616
19.897595,0.009128,0.001347,9.800266
19.907084,0.041601,0.052824,9.793532
19.927669,-0.001347,-0.033520,9.787547
19.937047,-0.008979,0.064346,9.800566
19.947247,0.028582,0.005387,9.807000
19.957071,-0.006285,-0.040404,9.782758
19.967092,-0.003891,0.041301,9.800865
19.977066,0.056864,0.036064,9.796824
20.002944,0.007931,-0.000599,9.799368
20.006654,0.043845,0.069285,9.780364
20.017140,0.059708,0.000898,9.760162
20.027119,0.000748,-0.039506,9.777072
20.036905,-0.002843,0.034867,9.790390
20.047160,0.024392,0.014216,9.785751
20.065842,-0.021100,0.018556,9.802661
20.077034,0.058061,0.034867,9.809245
20.087237,0.045940,-0.019603,9.798022
20.097666,0.010625,-0.005088,9.786649
20.107056,0.026038,0.060755,9.806102
20.117087,0.064646,-0.010924,9.762407
20.142192,-0.023195,0.052674,9.786200
20.146756,0.046689,0.030527,9.782758
20.157140,-0.019454,-0.023195,9.793083
20.167056,-0.017658,0.009577,9.811938
20.177071,0.060306,0.061653,9.784554
20.187073,0.039655,-0.034867,9.789193
20.206300,0.035016,0.070482,9.776623
20.217096,0.065095,-0.013169,9.784703
20.227204,-0.013019,-0.038608,9.767943
20.236912,-0.011523,0.044294,9.780214
20.247154,0.055817,0.006285,9.796076
20.257071,-0.006135,-0.048784,9.796974
20.282928,0.043247,0.064197,9.786200
20.286667,0.068088,-0.032173,9.764651
20.297200,0.012420,-0.006135,9.772283
20.307076,0.033670,0.027534,9.780513
20.317110,0.056415,0.004340,9.784404
20.327068,-0.019154,-0.036812,9.797722
20.351985,0.046539,0.034867,9.782010
20.356767,0.020651,-0.045641,9.807599
20.367218,-0.007931,0.005088,9.805504
20.377046,0.042798,0.049681,9.797573
20.386974,0.083201,0.001796,9.769440
20.397081,-0.013019,-0.015713,9.790539
20.419614,0.059259,-0.002544,9.770338
20.427052,-0.019603,-0.023494,9.796226
20.437230,-0.017508,0.017359,9.792036
20.447399,0.060007,0.024392,9.784703
20.457044,0.028432,-0.036064,9.813884
20.467053,-0.016610,0.010625,9.783357
20.482262,0.054171,0.053273,9.783656
20.486738,0.057014,-0.004040,9.768991
20.497120,0.008979,-0.039206,9.776024
20.507148,-0.008081,0.047287,9.783506
20.517222,0.038309,0.028881,9.781561
20.527068,-0.011971,-0.038758,9.792784
20.537069,-0.000150,0.022596,9.794131
20.554898,0.059408,-0.031575,9.789492
20.567093,0.026188,-0.011971,9.804456
20.577204,0.035166,0.038009,9.801912
20.586917,0.051926,-0.013318,9.771235
20.597151,-0.017359,-0.017508,9.786499
20.607069,-0.011971,0.031425,9.795627
20.629743,0.017359,-0.048484,9.795178
20.637067,0.008230,-0.003292,9.779017
20.647134,0.055667,0.073624,9.790240
20.657078,0.072726,-0.008829,9.783357
20.667197,0.009428,-0.029929,9.781262
20.677066,0.005537,0.070033,9.784105
20.695946,-0.000150,-0.038309,9.785003
20.707066,-0.023494,0.053123,9.792036
20.717185,0.045342,0.049981,9.788295
20.727063,0.052076,-0.017957,9.780364
20.736941,0.003741,-0.009577,9.782608
20.747137,0.044444,0.068836,9.795927
20.770480,-0.015413,-0.030527,9.779915
20.776957,-0.014964,0.032772,9.784105
20.787317,0.048185,0.004190,9.787247
20.797757,-0.010475,-0.030826,9.795627
20.807114,-0.000898,0.010774,9.825257
20.817196,0.055518,0.063000,9.805204
20.837001,-0.000748,-0.016311,9.784105
20.847079,0.022147,0.057762,9.770487
20.857209,0.058810,0.008230,9.792934
20.867088,0.001945,-0.051178,9.792485
20.877068,-0.008829,0.056266,9.785152
20.887121,0.047736,0.031425,9.799368
20.911551,0.060755,0.068536,9.784703
20.927136,0.056864,-0.008230,9.768243
20.936942,-0.012121,-0.046240,9.768692
20.947173,0.003591,0.046838,9.768991
20.957068,0.052375,0.009577,9.787996
20.978061,-0.004340,0.016461,9.809544
20.987171,0.045491,0.038758,9.801463
20.997460,0.056565,-0.019005,9.776623
21.007043,-0.007333,0.017359,9.785003
21.017082,0.026786,0.059408,9.781112
21.027172,0.083351,-0.001496,9.770637
21.045831,-0.021998,0.035316,9.803109
21.057039,0.053871,0.026337,9.795777
21.067193,0.022147,-0.042199,9.800266
21.077063,-0.008230,-0.000299,9.793981
21.087065,0.062102,0.052674,9.793682
21.097484,0.093377,-0.035465,9.767045
21.122458,0.036663,0.009876,9.782010
21.137006,-0.006135,-0.051178,9.781112
21.147089,-0.016012,0.054021,9.821516
21.157080,0.032473,0.038009,9.796824
21.167161,0.029031,-0.045043,9.796675
21.189906,0.039057,0.052225,9.817924
21.197304,0.067040,-0.007033,9.784703
21.207077,-0.010475,-0.024541,9.758665
21.217053,-0.013318,0.047886,9.799668
21.227074,0.051627,0.019603,9.787547
21.236931,-0.019753,-0.031126,9.776174
21.256790,0.055966,0.062850,9.776323
21.267179,0.060306,-0.015563,9.796675
21.277193,-0.001796,-0.013169,9.768841
21.287091,0.009278,0.060007,9.802511
21.297745,0.032473,-0.002544,9.773929
21.307081,-0.013019,-0.057912,9.782309
21.330688,0.042648,-0.041152,9.788893
21.347121,0.020351,0.009128,9.806551
21.357078,0.070033,0.077964,9.765848
21.367085,0.062850,-0.000748,9.787547
21.377183,-0.011373,-0.032772,9.755972
21.397769,0.035765,-0.010475,9.791437
21.407040,0.016161,-0.041451,9.776473
21.417288,-0.011373,0.019154,9.807599
21.427071,0.045940,0.047736,9.808497
21.437076,0.069434,-0.031724,9.769739
21.447092,0.007482,-0.003143,9.792335
21.473632,-0.029180,-0.019154,9.791737
21.487120,-0.017359,0.025888,9.812088
21.497434,0.062401,0.038907,9.810442
21.507118,0.038009,-0.025589,9.799069
21.517082,0.009428,0.003741,9.796675
21.540851,-0.007482,-0.030228,9.773480
21.557123,-0.017059,0.041750,9.779167
21.567049,0.063449,0.020052,9.798620
21.577028,0.014216,-0.029629,9.803409
21.587072,0.009428,0.013917,9.798321
21.604005,0.068387,0.007183,9.782459
21.617112,0.004489,-0.038159,9.777969
21.627085,0.005387,0.055218,9.783057
21.637061,0.031425,0.036663,9.784853
21.647161,0.007033,-0.035316,9.795927
21.657060,-0.007183,0.029779,9.799069
21.676792,0.035615,-0.023195,9.780663
21.687194,0.012121,-0.007333,9.789193
21.697930,0.045043,-0.004190,9.789342
21.717087,-0.002394,-0.021399,9.763903
21.727392,0.059708,0.022297,9.800715
21.751101,-0.003442,0.026038,9.801613
21.767421,0.067639,-0.005537,9.786948
21.786992,0.010026,-0.029629,9.800566
21.797110,0.009278,0.034268,9.777221
21.817026,-0.000748,0.040553,9.791437
21.827069,0.027684,0.049981,9.794580
21.837373,0.039206,-0.061204,9.800715
21.847903,0.005836,0.021249,9.797573
21.857073,0.056415,0.060456,9.782010
21.867154,0.056715,-0.018406,9.769290
21.891464,-0.000449,0.065244,9.789941
21.896911,0.031425,-0.005088,9.785901
21.907113,0.012570,-0.035765,9.798620
21.917069,-0.007183,0.055069,9.800566
21.927057,0.067190,0.046988,9.807748
21.937089,0.057613,-0.028582,9.785152
21.958317,0.029929,0.063000,9.810292
21.967237,0.057762,-0.011822,9.758217
21.977100,0.006584,-0.059857,9.768542
21.987032,-0.014665,0.045791,9.789492
21.997044,0.059408,0.025439,9.787247
22.007072,0.004639,-0.041601,9.774977
22.027906,0.070781,0.073475,9.808347
22.037064,0.064346,-0.026936,9.789342
22.047556,0.016311,-0.030527,9.785302
22.057046,0.026636,0.049233,9.776024
22.067080,0.060156,0.009278,9.778718
22.077070,-0.023195,-0.049233,9.784853
22.096232,0.039206,0.023045,9.795627
22.107016,0.042499,-0.058810,9.788145
22.117110,-0.001945,0.013169,9.786948
22.127026,0.046090,0.066142,9.792634
22.137063,0.075719,-0.019903,9.787547
22.147170,-0.022147,-0.024990,9.767045
22.166946,0.047586,0.007632,9.784404
22.176235,-0.004190,-0.074672,9.787996
22.187267,-0.047138,0.013318,9.781411
22.197975,0.066142,0.038309,9.812836
22.207111,0.038159,-0.042948,9.799368
22.217083,0.014515,-0.015114,9.775276
22.243337,0.067190,-0.016610,9.785601
22.246642,-0.011223,-0.036064,9.778718
22.257108,-0.017209,0.037710,9.801763
22.267068,0.057613,0.024242,9.786499
22.277060,-0.010625,-0.039955,9.777820
22.287062,0.009278,0.031575,9.816577
22.307767,0.048484,-0.016012,9.780962
22.317127,-0.001048,-0.008679,9.789941
22.327178,0.022147,0.057912,9.804007
22.337024,0.044594,-0.010924,9.778568
22.347085,-0.024392,-0.038608,9.783955
22.357068,0.001496,0.030976,9.815231
22.382515,0.024392,-0.046090,9.792186
22.386733,-0.004489,0.015713,9.796824
22.397214,0.054320,0.057613,9.787547
22.407099,0.075570,0.019603,9.799817
22.417133,0.010026,-0.031425,9.788444
22.427132,0.004340,0.057313,9.791587
22.448361,-0.014665,-0.046240,9.798171
22.457051,-0.009577,0.040853,9.782908
22.467183,0.044145,0.044444,9.807000
22.477031,0.042499,-0.043546,9.793682
22.487024,0.000299,0.001646,9.817026
22.497114,0.048335,0.066441,9.794430
22.514668,-0.002843,-0.027834,9.788444
22.527020,-0.014366,0.067040,9.781860
22.537172,0.028133,0.023195,9.777969
22.547459,-0.020202,-0.053423,9.779316
22.557076,-0.015563,0.036812,9.812986
22.567080,0.059708,0.033370,9.796974
22.590074,0.004789,-0.012121,9.804007
22.597011,0.054470,0.056116,9.780214
22.607116,0.061503,-0.006135,9.774827
22.617048,-0.018256,-0.034268,9.805953
22.627022,-0.023195,0.025439,9.786349
22.637024,0.016161,0.014366,9.787996
22.652971,-0.003741,0.004190,9.806851
22.667145,0.053722,0.053123,9.797872
22.677130,0.048634,-0.035914,9.779017
22.687058,0.010026,0.002394,9.806102
22.697163,0.036064,0.060456,9.762556
22.707057,0.065394,0.005986,9.780813
22.725878,-0.022895,0.036513,9.775425
22.737154,0.038758,0.022596,9.803858
22.747989,-0.000748,-0.045940,9.783806
22.757074,0.015264,0.004639,9.807748
22.767080,0.049981,0.089935,9.803259
22.777054,0.061204,-0.013618,9.799219
22.799763,0.021100,0.049382,9.809095
22.807040,0.049083,-0.006584,9.777520
22.817198,-0.018406,-0.048933,9.773031
22.827067,-0.009876,0.010026,9.793383
22.837043,0.026188,0.037860,9.793233
22.847072,0.027085,-0.029180,9.805055
22.866668,0.053572,0.068088,9.778568
22.877057,0.065244,-0.013618,9.775725
22.887276,-0.004489,-0.032323,9.783057
22.898054,0.001945,0.044444,9.795478
22.907080,0.044294,0.004938,9.774677
22.917077,-0.014665,-0.067339,9.799069
22.940643,0.048335,0.051776,9.814632
22.947027,0.032622,-0.046689,9.801912
22.957133,0.008230,0.002843,9.780064
22.967085,0.066441,0.073774,9.798471
22.976296,0.063149,-0.017359,9.797273
22.987096,-0.012720,-0.040703,9.784254
23.008113,0.045491,0.002095,9.789642
23.017127,-0.006734,-0.058361,9.780364
23.027097,-0.024242,0.040104,9.792335
23.037021,0.048634,0.049233,9.797722
23.047161,0.045641,-0.022297,9.796076
23.057094,0.038458,0.004938,9.780962
23.075924,0.045791,-0.004340,9.804905
23.087094,-0.000599,-0.030378,9.767195
23.098003,-0.000449,0.048035,9.779316
23.107086,0.019005,0.012720,9.794580
23.117076,-0.008979,-0.049382,9.792934
23.127054,-0.038159,0.023045,9.792036
23.149543,0.039805,-0.013318,9.793083
23.157065,-0.006734,-0.007632,9.780064
23.167243,0.050879,0.081705,9.785452
23.176246,0.053123,-0.003292,9.776473
23.187015,-0.010924,-0.036962,9.780663
23.197156,-0.013019,0.040404,9.780513
23.216453,0.001945,-0.047287,9.781112
23.227058,-0.006135,0.016461,9.784853
23.237236,0.046389,0.036214,9.787247
23.247911,0.058211,-0.019304,9.785003
23.257141,-0.000299,0.007632,9.787247
23.267071,0.042798,0.081106,9.767494
23.293046,-0.024990,0.054171,9.796076
23.307136,0.024392,0.002993,9.812088
23.317297,-0.008829,-0.046838,9.782608
23.327067,-0.026487,0.010325,9.792335
23.337178,0.055218,0.040703,9.806402
23.357253,0.014515,0.016910,9.767644
23.367118,0.051926,0.071080,9.794580
23.376408,0.066292,-0.026188,9.787996
23.387005,-0.000898,-0.036214,9.742953
23.397076,0.007033,0.054320,9.791886
23.407062,0.035465,0.015563,9.807599
23.433659,0.061204,0.045791,9.801763
23.447196,0.041750,-0.041750,9.765250
23.457167,0.023793,-0.006435,9.800566
23.467086,0.057313,0.073325,9.779765
23.476336,0.047287,-0.030976,9.783955
23.497237,-0.005387,0.065693,9.781860
23.507031,0.025739,0.007033,9.783806
23.517441,0.000299,-0.044743,9.781561
23.526333,-0.014815,0.041750,9.785601
23.537059,0.048035,0.032921,9.787397
23.547217,0.054171,-0.023344,9.808347
23.571605,0.056565,-0.019903,9.780064
23.587102,0.007183,-0.019005,9.765100
23.597555,-0.011223,0.042648,9.775725
23.607087,0.024392,0.002394,9.797273
23.617089,-0.016161,-0.033370,9.771984
23.638484,0.064496,-0.021998,9.776323
23.657114,0.015114,-0.001496,9.781561
23.667086,0.045791,0.082753,9.796974
23.677018,0.055368,-0.014515,9.758217
23.687046,0.020651,-0.012720,9.786349
23.710004,0.005686,-0.031425,9.803109
23.726307,-0.011822,-0.008081,9.803109
23.737010,0.057463,0.056715,9.795627
23.747025,0.072128,-0.019454,9.791886
23.757021,0.018705,-0.029779,9.779765
23.768606,0.062102,-0.002993,9.777820
23.787153,0.013468,-0.025140,9.785003
23.797668,0.050729,0.025140,9.797273
23.817122,0.000150,-0.027684,9.805055
23.827066,0.042199,0.052824,9.805653
23.843571,0.075719,-0.027684,9.769739
23.857056,0.018556,0.052824,9.774977
23.867267,0.059259,0.004489,9.773779
23.877054,-0.017059,-0.030677,9.777969
23.887048,-0.014964,0.033670,9.767045
23.897650,0.041301,0.020202,9.770787
23.919951,-0.003591,0.035615,9.803858
23.926474,-0.003591,0.035615,9.794729
23.937171,0.067639,-0.020202,9.803409
23.947067,0.013767,-0.007033,9.799967
23.957061,0.034119,0.068237,9.775126
23.967095,0.071380,0.016012,9.775425
23.985891,-0.015264,-0.034418,9.779616
23.986762,-0.017508,0.039206,9.795478
23.997744,0.038009,0.022895,9.792784
24.007201,-0.007931,-0.059708,9.792485
24.017080,-0.011822,0.013767,9.807299
24.027048,0.064346,0.053423,9.787846
24.037051,0.076916,-0.005836,9.795178
24.060463,0.045192,0.067190,9.770637
24.067039,0.041601,-0.009876,9.763005
24.077103,-0.023494,-0.041002,9.791737
24.087061,-0.019005,0.035465,9.777371
24.097807,0.034568,0.027684,9.780513
24.107036,0.013019,-0.030976,9.808347
24.126909,0.053572,0.033819,9.770338
24.137207,0.070183,0.001048,9.803708
24.147158,0.002694,-0.015114,9.809694
24.157051,0.017508,0.065244,9.774977
24.167164,0.043995,0.018855,9.774827
24.177108,-0.014216,-0.052824,9.793233
24.201107,0.046090,0.043247,9.795927
24.206877,0.012420,-0.027834,9.802361
24.216947,-0.004789,0.024093,9.776323
24.226382,0.059708,0.035465,9.780214
24.237033,0.069434,-0.000449,9.787696
24.247159,0.001796,-0.013767,9.796974
24.268177,0.059708,0.018406,9.786200
24.277036,-0.001496,-0.053871,9.793682
24.287101,-0.033370,0.022297,9.786499
24.298050,0.048185,0.041601,9.780214
24.307070,0.017059,-0.038458,9.778718
24.317102,-0.003143,0.008679,9.798770
24.336118,0.073026,-0.006584,9.758665
24.347072,0.004789,-0.018855,9.797423
24.357096,0.034568,0.076767,9.789492
24.367105,0.056565,0.019304,9.752979
24.376415,-0.022895,-0.048933,9.804307
24.387036,-0.013169,0.037411,9.795029
24.409773,0.023344,-0.057313,9.805354
24.417046,-0.003292,0.001496,9.807000
24.426432,0.057463,0.065095,9.781561
24.437051,0.068536,-0.007183,9.782459
24.447069,0.002544,-0.017059,9.805504
24.457048,0.006734,0.062850,9.764352
24.477175,-0.001197,-0.056266,9.814931
24.487056,-0.014815,0.032473,9.799967
24.497839,0.042349,0.031724,9.779915
24.507077,0.026936,-0.048634,9.781411
24.517159,-0.014216,0.006435,9.809843
24.527060,0.070631,0.076617,9.795328
24.551183,0.011822,-0.026038,9.794131
24.556850,0.037710,0.040853,9.771086
24.567144,0.060156,0.010176,9.773779
24.576377,-0.005088,-0.051028,9.799967
24.587035,-0.013169,0.020950,9.796675
24.597278,0.034568,0.044743,9.780813
24.617890,0.000599,0.015713,9.806402
24.627039,0.057762,0.048335,9.785601
24.637107,0.061503,-0.015563,9.776024
24.647601,0.017957,-0.018855,9.791886
24.657030,0.011672,0.052974,9.775126
24.667153,0.078413,-0.003891,9.779765
24.687955,-0.015563,0.043546,9.789642
24.697063,0.023644,0.005686,9.809394
24.707129,0.027235,-0.042648,9.783955
24.716650,0.003591,0.014515,9.804606
24.727040,0.069734,0.068686,9.773929
24.737053,0.072427,-0.016760,9.800715
24.758420,0.017957,0.029629,9.799668
24.767128,0.045940,0.008979,9.770038
24.776525,-0.008979,-0.054769,9.778119
24.787036,-0.029779,0.019753,9.803109
24.797150,0.047586,0.046090,9.789791
24.807069,0.019903,-0.055518,9.801164
24.836030,0.060755,-0.009428,9.803259
24.847333,0.008081,-0.024541,9.771684
24.857069,0.012420,0.047736,9.786499
24.867205,0.045342,0.004190,9.776623
24.876420,-0.035615,-0.044893,9.792186
24.893062,0.032323,0.043546,9.797124
24.907021,0.015114,-0.052824,9.795029
24.917240,-0.013917,0.013318,9.818074
24.927049,0.064047,0.060905,9.785152
24.937057,0.065244,-0.010924,9.801314
24.947148,0.015713,-0.012121,9.773181
24.969837,0.060007,0.007183,9.786499
24.976451,-0.020202,-0.043995,9.786349
24.987275,-0.006584,0.036513,9.785302
24.997978,0.038009,0.007482,9.771684
25.007058,0.016461,-0.044294,9.797273
25.017068,-0.000748,0.012121,9.800566
25.036350,0.068686,-0.036962,9.776623
25.047091,0.010325,-0.021100,9.787397
25.057185,0.040404,0.068237,9.804456
25.067135,0.045791,-0.017508,9.758516
25.076434,-0.025739,-0.038458,9.772283
25.087027,-0.020052,0.025140,9.781860
25.110287,-0.017808,-0.041152,9.800266
25.117005,-0.010625,0.012121,9.817326
25.127143,0.049681,0.065095,9.798321
25.137058,0.042499,-0.041900,9.798620
25.147059,0.006135,-0.017957,9.780513
25.157049,0.051477,0.083351,9.778418
25.177742,-0.015264,-0.042648,9.768841
25.187073,-0.018705,0.059708,9.767644
25.197712,0.051477,0.009727,9.793083
25.207030,-0.008679,-0.068836,9.781112
25.216439,-0.036513,0.048185,9.770038
25.227040,0.038458,0.041002,9.794131
25.245541,-0.001496,0.013019,9.804905
25.257053,0.062401,0.051627,9.787846
25.267247,0.062551,-0.031425,9.794729
25.276399,0.017957,-0.013318,9.782459
25.287051,0.021998,0.055966,9.798321
25.297736,0.051926,-0.011523,9.773929
25.322500,0.040703,0.021249,9.800266
25.337079,-0.006135,-0.021100,9.822862
25.347090,-0.027684,0.028133,9.797573
25.357052,0.033520,0.045342,9.799069
25.367168,0.030378,-0.058959,9.789193
25.386296,0.045940,0.054171,9.799817
25.398246,0.065843,-0.014216,9.809544
25.407206,0.009727,-0.025739,9.791886
25.417074,0.013767,0.042798,9.779915
25.426453,0.071080,-0.001796,9.777221
25.437051,-0.009428,-0.051477,9.805204
25.462997,-0.006435,-0.047736,9.795328
25.476441,-0.010475,0.032173,9.794131
25.487052,0.059408,0.030078,9.796675
25.497860,0.033819,-0.024691,9.796376
25.507067,-0.004489,0.002245,9.771984
25.527214,0.074821,0.005986,9.792934
25.537123,-0.015563,-0.017808,9.766896
25.547211,0.018107,0.052974,9.761209
25.557053,0.082902,0.000748,9.776323
25.567185,-0.014815,-0.013767,9.776772
25.577126,-0.005537,0.054021,9.775575
25.603647,-0.006435,0.028133,9.776024
25.617124,0.053572,0.039805,9.785003
25.626403,0.033370,-0.049083,9.798022
25.637045,-0.010325,0.021549,9.804157
25.647133,0.081406,0.055069,9.791288
25.668054,0.027834,0.070931,9.773480
25.687313,0.079909,0.000150,9.781411
25.698216,0.007482,0.052076,9.790988
25.717049,0.030677,0.014665,9.770487
25.744271,0.035914,0.048035,9.810592
25.757090,0.013917,-0.046689,9.790839
25.767056,0.000000,0.009577,9.781112
25.776455,0.068237,0.041301,9.806701
25.787037,0.053123,-0.018256,9.765100
25.808581,0.079311,-0.011074,9.781411
25.827116,-0.003741,-0.041002,9.777969
25.837158,0.023793,0.044893,9.780064
25.847318,0.048335,0.017658,9.771984
25.857060,-0.014216,-0.043396,9.800266
25.883858,0.006734,-0.027684,9.794580
25.897124,-0.024541,0.024691,9.792036
25.907036,0.036663,-0.026786,9.799668
25.917094,0.004489,0.021399,9.790839
25.937008,0.068985,-0.032473,9.777520
25.953428,0.004489,-0.011373,9.780364
25.967163,0.054919,-0.009577,9.785751
25.987042,-0.008829,0.024841,9.787996
25.997032,0.049083,0.008679,9.799368
26.007151,-0.001945,-0.045791,9.793233
26.029213,0.037710,0.045791,9.803708
26.037037,0.060755,-0.029929,9.783656
26.047731,-0.003741,0.027534,9.776922
26.057017,0.062102,0.081705,9.773181
26.067060,0.085745,-0.026487,9.789492
26.077040,0.019005,-0.007931,9.776772
26.094214,0.028731,0.068836,9.784105
26.096464,0.079161,-0.013019,9.783955
26.107091,-0.001347,-0.032323,9.772283
26.117119,-0.006135,0.059259,9.801314
26.127042,0.040104,0.011523,9.788444
26.137095,-0.014066,-0.055518,9.799967
26.147847,-0.030677,0.036513,9.776174
26.168168,0.035166,-0.049532,9.798471
26.176573,-0.004489,0.022746,9.803858
26.187114,0.058660,0.047287,9.783506
26.197193,0.060755,-0.029031,9.799069
26.207042,0.000000,-0.011373,9.780663
26.217242,0.030976,0.063598,9.798471
26.241507,0.008829,-0.054021,9.783656
26.247654,0.008829,0.051477,9.799069
26.257080,0.046689,0.010924,9.797273
26.267058,-0.024841,-0.049532,9.790988
26.276512,-0.016910,0.045342,9.789043
26.287041,0.040404,0.039206,9.787098
26.308121,-0.022297,0.009727,9.784254
26.317268,0.041002,0.050729,9.779167
26.326512,0.045491,-0.016161,9.812238
26.337037,-0.007781,-0.002544,9.777520
26.347919,0.051627,0.046389,9.785452
26.357053,0.078114,-0.033520,9.791737
26.381878,0.019603,0.041750,9.803409
26.386756,0.064197,-0.000299,9.771385
26.397008,-0.016311,-0.041900,9.786499
26.407059,-0.010774,0.069734,9.781411
26.417065,0.047138,0.013019,9.786200
26.426526,0.002544,-0.070183,9.779017
26.445934,0.043696,0.022746,9.786349
26.457123,0.012570,-0.043696,9.799967
26.467060,-0.009876,0.026786,9.795328
26.477086,0.043995,0.046090,9.806252
26.487052,0.035316,-0.009876,9.787397
26.497140,0.015713,-0.010475,9.772732
26.523088,0.068836,-0.018256,9.777520
26.526657,0.011672,-0.023793,9.763155
26.537030,0.005686,0.060007,9.772133
26.548063,0.045342,0.001496,9.774228
26.557065,-0.027085,-0.042499,9.804606
26.567070,-0.023045,0.030976,9.809245
26.590642,-0.008679,-0.044594,9.766297
26.597028,-0.030677,0.027235,9.790839
26.607017,0.050579,0.037261,9.807449
26.617063,0.032173,-0.034717,9.794131
26.627006,0.016311,0.013468,9.796675
26.637046,0.059708,0.060755,9.798171
26.657988,0.008380,-0.008081,9.793682
26.667121,0.032921,0.081256,9.794580
26.676479,0.052225,-0.011672,9.757019
26.687044,-0.003292,-0.035914,9.751483
26.697032,0.000449,0.047287,9.785003
26.707135,0.040254,0.018705,9.812836
26.731869,-0.009727,0.057762,9.775276
26.736759,0.031874,0.035765,9.788744
26.747077,0.025290,-0.042050,9.778867
26.757018,0.005686,0.008679,9.800266
26.767063,0.053423,0.032473,9.812836
26.776620,0.047586,-0.042648,9.787996
26.798011,0.046090,0.055667,9.793981
26.807111,0.040853,-0.015413,9.786349
26.817072,0.022895,-0.011971,9.759713
26.827047,0.035615,0.071230,9.789492
26.837058,0.063299,0.001496,9.780663
26.847629,0.000449,-0.039955,9.766447
26.873018,-0.011223,-0.035166,9.797722
26.887044,-0.017359,0.026936,9.783806
26.897738,0.055667,0.036064,9.790390
26.907021,0.029929,-0.054320,9.768692
26.916849,-0.001796,0.025290,9.804007
26.939093,0.071080,-0.039506,9.783057
26.947044,0.023494,-0.001197,9.765250
26.957017,0.043097,0.057463,9.793532
26.967024,0.073624,-0.019005,9.784105
26.977003,-0.006285,-0.046838,9.780513
26.987016,0.022446,0.046539,9.782608
27.009856,-0.024093,-0.036663,9.778568
27.017106,-0.017808,0.035615,9.771235
27.026484,0.032921,0.032473,9.774827
27.037007,-0.036064,-0.037261,9.768093
27.047000,-0.027534,0.036214,9.804606
27.057005,0.058061,0.030826,9.793682
27.069256,0.045342,-0.060755,9.810592
27.076567,-0.000898,-0.008081,9.802212
27.087126,0.072577,0.067040,9.796974
27.096646,0.067339,-0.024093,9.766297
27.107005,-0.000150,-0.018855,9.782309
27.117054,0.035615,0.075121,9.787696
27.126563,0.064945,-0.006734,9.774079
27.143444,0.019154,0.048335,9.777072
27.157231,0.030826,0.002993,9.802062
27.167088,-0.018406,-0.045192,9.772283
27.176575,-0.016161,0.054919,9.810592
27.187032,0.029031,0.025140,9.779167
27.197966,-0.008230,-0.034867,9.777371
27.220796,0.046689,-0.028283,9.777520
27.237080,0.006584,0.026636,9.788893
27.247310,0.047586,0.064047,9.811190
27.257052,0.067190,-0.019454,9.765250
27.267095,0.007482,-0.011373,9.804157
27.287242,0.062551,-0.008230,9.766597
27.298114,-0.006435,-0.041750,9.763005
27.307106,0.004489,0.081106,9.774228
27.317050,0.037860,0.014366,9.786499
27.327033,-0.019903,-0.047287,9.781262
27.337046,-0.029929,0.049382,9.789791
27.356275,0.012570,-0.030228,9.777820
27.367248,-0.020800,0.027834,9.783806
27.377039,0.046539,0.051028,9.783057
27.387118,0.049681,-0.037560,9.806102
27.398319,0.015413,0.006884,9.799518
27.406949,0.064646,0.055966,9.783057
27.425568,0.000898,-0.003442,9.785003
27.437156,0.035765,0.052525,9.773779
27.447185,0.071380,0.001197,9.801613
27.457046,-0.002095,-0.039206,9.786649
27.467049,-0.004489,0.062850,9.779765
27.476592,0.049233,0.004489,9.795328
27.501607,0.039057,0.017808,9.793981
27.516709,-0.000599,-0.037860,9.771834
27.527007,-0.015114,0.046240,9.787098
27.536986,0.029929,0.057463,9.804756
27.546976,0.029929,-0.049981,9.782309
27.556385,0.004489,-0.008530,9.804606
27.567033,0.051178,0.053273,9.783357
27.576544,0.034418,-0.030677,9.801314
27.587019,0.013318,0.005986,9.814033
27.597458,0.071679,0.072278,9.805204
27.606985,0.060905,-0.008530,9.776473
27.616988,0.001197,0.003741,9.780663
27.626223,0.016012,0.052076,9.774079
27.637007,0.041750,-0.022895,9.776473
27.647116,-0.006734,-0.040104,9.769739
27.656979,-0.008530,0.060156,9.808796
27.666992,0.061204,0.013917,9.788444
27.676977,-0.011822,-0.041002,9.789941
27.686979,-0.014216,0.026636,9.796974
27.698399,0.002394,-0.061653,9.783656
27.717205,-0.000748,0.027235,9.812537
27.726997,0.055218,0.040104,9.806551
27.736993,0.024242,-0.025888,9.777221
27.746983,-0.004489,0.031425,9.780962
27.756986,0.054620,0.084099,9.783955
27.769176,0.008979,-0.032473,9.784554
27.787048,0.047736,0.060905,9.789642
27.797792,0.005686,-0.031874,9.786948
27.817014,-0.001796,0.049233,9.786798
27.826543,0.027684,0.002544,9.780813
27.843044,-0.020052,0.029629,9.780813
27.857125,0.057164,0.028582,9.801164
27.867140,0.004190,-0.035615,9.776174
27.877096,-0.012869,0.044893,9.798321
27.887115,0.019154,-0.055966,9.796226
27.897795,-0.012121,0.009577,9.785452
27.914665,0.063598,0.063598,9.804606
27.926743,0.055966,-0.019005,9.784254
27.937138,0.018107,0.006285,9.789342
27.947287,0.051028,0.072128,9.786349
27.957045,0.010325,-0.024990,9.780513
27.967054,0.034568,0.044743,9.776174
27.992317,-0.021698,-0.021549,9.806102
27.996689,-0.017209,0.042648,9.793083
28.007100,0.037111,0.008979,9.781711
28.016637,-0.021549,-0.047736,9.790091
28.026646,-0.033221,0.033221,9.794430
28.037037,0.052525,0.049083,9.793532
28.062649,-0.019454,0.008380,9.812986
28.066730,0.062251,0.044594,9.799219
28.076566,0.058361,-0.036812,9.796974
28.086998,0.012121,0.017808,9.795927
28.097998,0.077216,0.063299,9.787547
28.107050,0.053123,-0.007033,9.782159
28.131379,0.026188,0.073774,9.796824
28.136884,0.061054,-0.015264,9.776174
28.147005,0.004040,-0.025739,9.800266
28.157071,0.003442,0.057762,9.785751
28.167031,0.059109,-0.002095,9.801164
28.176998,-0.016910,-0.052076,9.805204
28.194154,-0.015114,0.028283,9.803259
28.196457,0.038608,0.055518,9.809245
28.207099,-0.010026,-0.044743,9.787846
28.217013,-0.021848,0.022147,9.804456
28.227110,0.044893,0.057613,9.798471
28.237040,0.032323,-0.018406,9.803109
28.247101,0.000449,0.017059,9.789043
28.267479,0.052974,-0.038907,9.803708
28.277141,0.035316,0.005238,9.801314
28.287143,0.030228,0.059408,9.807748
28.298216,0.077515,0.000748,9.793532
28.307048,0.004938,-0.032173,9.780064
28.317052,0.033969,0.064646,9.798620
28.341237,-0.003442,-0.030826,9.775276
28.346981,-0.016311,0.052375,9.819570
28.357008,0.052225,0.001796,9.810442
28.367051,0.002245,-0.068836,9.780214
28.376653,-0.032024,0.034268,9.807000
28.387028,0.027684,0.018855,9.824808
28.405633,-0.009876,0.023344,9.793083
28.417171,0.057912,0.035465,9.812687
28.427135,0.019454,-0.018406,9.798770
28.437042,0.014515,0.017508,9.775725
28.447132,0.038309,0.054620,9.804606
28.457040,0.064496,-0.030677,9.800266
28.479569,0.058510,0.072128,9.797124
28.487155,0.069285,-0.011223,9.801912
28.497823,0.004489,-0.046240,9.782908
28.507042,0.018705,0.049681,9.808646
28.516559,0.026487,0.021698,9.798770
28.526653,-0.013767,-0.033969,9.811190
28.546075,0.027834,0.010325,9.800266
28.557109,-0.007183,-0.046090,9.796376
28.567024,-0.034418,0.043995,9.812238
28.576603,0.028582,0.041750,9.795328
28.586998,0.013917,-0.048784,9.812238
28.597994,-0.009278,0.038159,9.819570
28.617972,0.033969,-0.040104,9.804307
28.626642,-0.007482,0.040853,9.810891
28.636639,0.059109,0.066292,9.805055
28.647163,0.071529,-0.042648,9.787996
28.657037,-0.000150,-0.003741,9.804307
28.667131,0.044893,0.057762,9.801014
28.687559,0.005686,-0.038009,9.785601
28.697866,0.029929,0.051178,9.792485
28.707062,0.054919,-0.001197,9.808646
28.717049,-0.033819,-0.025888,9.808796
28.726748,-0.002843,0.060306,9.783806
28.737040,0.038009,0.013618,9.789642
28.754524,-0.013618,0.030976,9.804157
28.767155,0.025589,0.045491,9.808347
28.776601,0.014515,-0.048634,9.789043
28.786998,-0.013468,0.014515,9.799368
28.797756,0.039206,0.043995,9.817475
28.807081,0.025140,-0.021998,9.798171
28.827801,0.051328,0.081855,9.802361
28.837202,0.048185,-0.046988,9.760910
28.847197,0.006135,-0.005387,9.801463
28.856982,0.040853,0.048484,9.801014
28.867057,0.057313,-0.014216,9.810442
28.877002,0.002843,-0.017808,9.795478
28.890328,0.021698,0.066741,9.773181
28.897605,0.046240,-0.012121,9.806402
28.907121,-0.017658,-0.033819,9.792485
28.917021,-0.004340,0.066292,9.795777
28.926992,0.035016,0.005686,9.803259
28.937004,-0.011971,-0.067788,9.801763
28.947044,-0.026487,0.043097,9.810442
28.965001,-0.016910,-0.044294,9.789941
28.977063,-0.009577,0.035016,9.819271
28.987079,0.039206,0.050280,9.796076
28.997900,0.014964,-0.042648,9.819720
29.007019,-0.003292,0.016012,9.818523
29.017006,0.055667,0.065693,9.803558
29.042488,0.065544,0.062401,9.784254
29.057000,0.062401,-0.021848,9.799368
29.067014,-0.007333,-0.008979,9.807898
29.076630,0.017808,0.069135,9.790240
29.086992,0.055069,-0.001048,9.794131
29.105722,-0.010625,0.050879,9.794430
29.117170,0.029929,0.004489,9.798620
29.126628,-0.008081,-0.073026,9.820468
29.136560,-0.026786,0.047138,9.786649
29.147112,0.036812,0.043247,9.801164
29.157036,-0.006584,-0.029629,9.818373
29.184286,0.011822,-0.054769,9.814333
29.197199,-0.006435,0.023344,9.825107
29.207103,0.049831,0.047886,9.799817
29.217057,0.061054,-0.028133,9.804606
29.226706,-0.000299,-0.018705,9.825706
29.245930,0.065843,-0.000299,9.793981
29.257138,0.001197,-0.019304,9.814482
29.267043,0.027534,0.045491,9.808497
29.277030,0.048035,-0.027834,9.785901
29.287036,-0.001048,-0.033370,9.816727
29.297104,0.006734,0.066591,9.800865
29.320571,-0.037710,0.041601,9.807150
29.337094,0.020202,0.005238,9.811789
29.348190,-0.029629,-0.038907,9.788893
29.357034,-0.010774,0.045791,9.815231
29.367038,0.042050,0.025140,9.796824
29.387447,-0.042798,0.034717,9.854437
29.397242,0.052375,0.057014,9.816128
29.407042,0.027085,-0.020202,9.828698
29.416900,-0.002394,0.030677,9.801763
29.427035,0.055069,0.068387,9.817475
29.437035,0.046240,-0.029330,9.803409
29.460504,0.073624,-0.017359,9.814782
29.476661,-0.005836,0.001945,9.800715
29.487037,0.035016,0.075869,9.817176
29.497141,0.071230,-0.014216,9.807748
29.507037,0.019005,-0.047586,9.784703
29.528376,0.046240,0.018406,9.809694
29.537121,-0.032772,-0.028881,9.779316
29.548005,-0.022596,0.041451,9.794131
29.557017,0.037710,0.013318,9.793981
29.567041,-0.032622,-0.039206,9.815679
29.576724,-0.009876,0.045192,9.807898
29.595439,0.001796,-0.024990,9.808347
29.607073,-0.009278,0.030677,9.810741
29.617037,0.023494,0.035914,9.817026
29.626702,0.011822,-0.060605,9.840819
29.636507,-0.018705,0.023494,9.823311
29.648015,0.053572,0.069584,9.797423
29.670491,0.061803,0.028731,9.837078
29.687018,0.063149,-0.035765,9.825706
29.697196,0.008979,-0.007183,9.818972
29.706960,0.033221,0.048634,9.790689
29.717078,0.058510,-0.018556,9.804905
29.736825,0.031724,0.057613,9.804456
29.746482,0.065244,-0.017059,9.798471
29.756463,-0.001496,-0.030527,9.807599
29.767073,0.014216,0.067938,9.793083
29.777001,0.043995,-0.001347,9.771385
29.787061,-0.019454,-0.040853,9.803109
29.803390,0.031275,0.011822,9.802511
29.817199,-0.023494,-0.073624,9.796675
29.827007,-0.027983,0.060605,9.803558
29.837001,0.048185,0.034717,9.797722
29.847901,-0.004489,0.049831,9.824957
29.867135,0.032024,0.042648,9.818972
29.887856,0.047138,0.065095,9.806252
29.907070,0.052824,-0.040404,9.809245
29.917056,0.018556,0.003591,9.785003
29.927070,0.063449,0.066741,9.821216
29.937044,0.010625,0.006584,9.806402
29.961295,0.059408,-0.017209,9.814931
29.966832,-0.002095,-0.032622,9.803858
29.976992,0.019603,0.059408,9.790091
29.987050,0.049083,-0.006135,9.811041
29.997092,-0.029629,-0.035914,9.808796
30.007001,-0.001347,0.072876,9.799069
30.027850,-0.025140,-0.059558,9.824059
30.037081,-0.029031,0.051776,9.792784
30.047206,0.040254,0.027684,9.813435
30.057020,-0.024841,-0.049382,9.801613
30.067058,-0.026636,0.026188,9.808946
30.077033,0.041451,0.039955,9.820618
30.098999,-0.009278,0.035016,9.830045
30.106966,0.052076,0.042199,9.811789
30.117015,0.003891,-0.071230,9.806551
30.127036,-0.027385,0.026636,9.832888
30.137005,0.047287,0.051776,9.805953
30.147048,0.026487,-0.033670,9.811639
30.165141,0.010026,0.002544,9.822264
30.166207,0.070781,0.061952,9.806701
30.176975,0.059708,-0.038907,9.799518
30.187079,0.003143,-0.004040,9.793532
30.197228,0.065693,0.040254,9.816278
30.206884,0.055817,-0.021698,9.815679
30.217039,0.009727,-0.003891,9.832140
30.239878,0.061653,-0.008979,9.814782
30.247039,0.000449,-0.024841,9.792485
30.256999,0.019753,0.059857,9.820468
30.267002,0.047437,-0.007183,9.815231
30.276701,-0.008081,-0.035615,9.795029
30.286989,-0.013468,0.064945,9.803858
30.310139,-0.029031,-0.030677,9.794281
30.316972,-0.015413,0.053123,9.816128
30.326979,0.017508,0.027534,9.805204
30.336997,-0.028432,-0.041601,9.814931
30.347083,-0.040553,0.044893,9.810592
30.356992,0.043247,0.049831,9.811639
30.369693,0.003591,-0.036663,9.817176
30.376833,-0.009876,0.035914,9.843812
30.387004,0.034119,0.052974,9.798022
30.397171,0.010026,-0.057613,9.813136
30.407001,-0.003143,0.033071,9.819869
30.417041,0.040703,0.039356,9.824359
30.426838,0.027684,-0.028133,9.832290
30.444230,0.049532,0.081555,9.820917
30.456994,0.071529,-0.038458,9.797872
30.467098,-0.000299,-0.031425,9.806551
30.477036,0.050729,0.046988,9.820468
30.487027,0.054470,-0.036363,9.801613
30.497140,0.014066,-0.011971,9.814632
30.518271,0.043546,-0.022895,9.806252
30.526907,0.022147,-0.016012,9.806551
30.537138,0.014665,0.044594,9.818523
30.547295,0.042798,-0.016161,9.801164
30.557029,-0.005537,-0.025439,9.799817
30.567083,0.005238,0.055069,9.803558
30.591210,-0.018855,-0.028133,9.790390
30.596819,-0.022895,0.054620,9.787397
30.607081,0.029330,0.013618,9.806701
30.617024,-0.024242,-0.046090,9.798022
30.627022,-0.028582,0.049681,9.815679
30.637032,0.043097,0.024392,9.815231
30.658361,-0.018406,0.035316,9.804606
30.667038,0.027385,0.042798,9.822563
30.676999,0.003591,-0.042499,9.805953
30.687002,-0.008380,0.032323,9.840670
30.697146,0.041301,0.039805,9.803259
30.706813,0.003591,-0.040853,9.824209
30.725552,0.041601,0.059857,9.826454
30.737073,0.033520,-0.028582,9.822862
30.747351,-0.002544,0.007482,9.817326
30.757029,0.058660,0.066441,9.803858
30.767036,0.062850,-0.037860,9.811639
30.776804,0.012121,-0.007183,9.793383
30.798771,0.065693,-0.031126,9.819869
30.806953,0.003442,-0.005238,9.813136
30.816705,0.027534,0.087092,9.810442
30.826747,0.063000,-0.018256,9.809544
30.837025,-0.006135,-0.034717,9.798620
30.847159,0.024093,0.057164,9.794131
30.867405,-0.023494,-0.038309,9.793682
30.877151,0.019603,0.068387,9.820019
30.887126,0.047886,-0.002694,9.803409
30.897445,-0.008679,-0.040853,9.782758
30.907039,0.007482,0.055817,9.798171
30.917033,0.024990,0.012420,9.808197
30.943026,0.028731,0.018855,9.819869
30.956995,-0.010026,-0.063449,9.817625
30.967170,-0.018855,0.040703,9.805055
30.976809,0.034268,0.027834,9.793981
30.987021,0.001496,-0.044893,9.804157
31.007009,0.021998,0.034418,9.790839
31.017193,0.014665,-0.054171,9.810741
31.026906,-0.035316,0.029330,9.808946
31.037027,0.045940,0.037710,9.834983
31.047155,0.019454,-0.047586,9.825257
31.057022,-0.019603,0.026188,9.825406
31.083614,0.001646,0.027385,9.817326
31.097083,0.047736,0.070931,9.805055
31.107103,0.032323,-0.009577,9.804456
31.117375,0.003292,0.015413,9.820618
31.126835,0.060007,0.048784,9.808796
31.147578,0.006884,-0.011223,9.804756
31.157088,0.063149,0.055966,9.806851
31.167039,0.049532,-0.020501,9.807000
31.176797,0.014216,0.003143,9.833487
31.187026,0.039506,0.067489,9.814931
31.197156,0.061204,-0.015713,9.786200
31.225045,0.062251,-0.006285,9.826154
31.236996,-0.004489,-0.012420,9.791886
31.247200,0.037860,0.051477,9.827501
31.257026,0.067938,-0.007333,9.802511
31.267037,-0.010475,-0.036962,9.803558
31.287892,0.060306,-0.001945,9.792634
31.297189,-0.009876,-0.029929,9.804905
31.307035,-0.003591,0.052824,9.812238
31.316515,0.062401,0.001347,9.790839
31.326812,-0.011373,-0.037411,9.792036
31.337074,-0.007781,0.046090,9.804905
31.362269,-0.027085,0.055069,9.783057
31.376776,0.029929,0.006135,9.791288
31.386998,-0.037261,-0.056715,9.814482
31.397122,-0.010325,0.036513,9.812387
31.407029,0.031575,0.025589,9.803708
31.430964,0.030826,0.039057,9.800117
31.447102,-0.005088,-0.034568,9.814482
31.457056,-0.028283,0.030378,9.816128
31.467049,0.039506,0.059259,9.802361
31.476834,0.008230,-0.029929,9.818672
31.493761,0.037111,0.052824,9.823311
31.507092,0.009428,-0.065244,9.825556
31.517009,-0.036214,0.020950,9.821216
31.526831,0.027385,0.040853,9.832739
31.537033,0.033071,-0.028133,9.817176
31.547137,0.010924,-0.003591,9.817326
31.566452,0.032921,-0.028881,9.799668
31.577006,0.009876,0.012420,9.810292
31.587133,0.053722,0.068088,9.823311
31.597334,0.058211,-0.024242,9.807449
31.607032,0.008829,-0.004938,9.811190
31.617043,0.064646,0.063449,9.816727
31.640068,0.042948,0.060755,9.802511
31.656996,0.061803,-0.020651,9.805504
31.667247,-0.012420,-0.026786,9.795627
31.676863,0.057613,0.071829,9.832439
31.687017,0.062401,-0.015413,9.814033
31.707002,0.054171,0.080059,9.819570
31.717167,0.064047,-0.003741,9.828848
31.726869,-0.003442,-0.007931,9.798471
31.737026,0.036663,0.056415,9.822413
31.747144,0.061054,-0.019603,9.819421
31.757020,0.007781,-0.021998,9.805055
31.780888,-0.027834,-0.029180,9.807599
31.797125,-0.004789,0.044444,9.807898
31.807033,0.029629,0.005238,9.801763
31.816409,-0.019154,-0.043097,9.805504
31.827005,-0.010325,0.058810,9.822114
31.848371,-0.014815,0.066292,9.802810
31.867101,0.049083,0.024242,9.796824
31.877140,-0.014964,0.049233,9.795178
31.897260,0.033221,0.006734,9.799967
31.916504,-0.022297,0.044743,9.811041
31.927010,-0.028283,-0.071380,9.820019
31.947321,0.031724,0.004040,9.813285
31.957026,-0.012121,-0.059708,9.821216
31.967022,-0.030078,0.043097,9.809843
31.989210,-0.019753,-0.039805,9.802212
31.997003,-0.049382,0.040104,9.823162
32.007008,0.032921,0.038009,9.826603
32.017009,-0.001646,-0.039955,9.811041
32.026927,-0.015114,0.041451,9.817625
32.036992,0.048933,0.030677,9.810442
32.055648,-0.014964,-0.039356,9.818523
32.056560,-0.011223,0.027085,9.810891
32.067169,0.043995,0.017359,9.810442
32.076993,0.009727,-0.029929,9.808946
32.086993,-0.017508,0.020950,9.817176
32.096710,0.025888,0.050130,9.816428
32.107013,-0.000898,-0.036812,9.802062
32.126671,0.034268,0.043995,9.824508
32.137106,0.013618,-0.060156,9.803558
32.147330,-0.007931,0.020351,9.842316
32.157015,0.046240,0.021249,9.807599
32.167028,0.012570,-0.057313,9.826454
32.177013,-0.010475,0.019005,9.827950
32.203297,0.011971,-0.040254,9.830644
32.206573,-0.022746,0.016610,9.830793
32.216994,0.036214,0.070183,9.823311
32.226839,0.017209,-0.040853,9.818822
32.237023,-0.009876,0.032772,9.821067
32.247296,0.039356,0.035166,9.826154
32.267682,-0.025439,0.021100,9.812387
32.276886,0.038458,0.057014,9.802212
32.287117,0.024841,-0.020950,9.836181
32.297310,-0.010475,0.016760,9.826903
32.307015,0.056565,0.072726,9.822862
32.317042,0.023195,-0.023494,9.830494
32.342007,0.050130,0.059408,9.817176
32.346789,0.048484,-0.017808,9.814782
32.356990,-0.008081,-0.007781,9.819421
32.367052,0.061204,0.060755,9.788893
32.376875,0.053572,-0.037111,9.799069
32.387094,0.001646,0.005238,9.825556
32.409997,0.048933,-0.012869,9.792186
32.417064,0.012570,-0.003891,9.823311
32.426849,0.054620,0.067938,9.825107
32.436311,0.049382,-0.033221,9.806851
32.446970,-0.010924,-0.014216,9.811489
32.456984,0.061204,0.072427,9.808048
32.479787,-0.005238,-0.011971,9.826454
32.487108,0.053423,0.075869,9.817475
32.496972,0.043396,-0.032921,9.818972
32.506984,-0.007931,-0.029180,9.800715
32.516995,0.041301,0.079460,9.809095
32.526849,0.066741,0.003143,9.803409
32.539032,-0.021549,-0.007931,9.811041
32.546939,0.032921,0.085596,9.804756
32.557096,0.059857,-0.007781,9.804307
32.566998,0.002843,-0.012570,9.815380
32.576911,0.045940,0.061054,9.792634
32.587024,0.065244,-0.012720,9.803109
32.597014,-0.000449,-0.041152,9.809993
32.614992,0.068836,-0.008380,9.811340
32.627087,-0.010625,-0.044743,9.793083
32.637028,0.013618,0.058061,9.800715
32.647010,0.060306,-0.014066,9.790988
32.657019,0.005986,-0.040553,9.812687
32.667089,0.007183,0.060007,9.808497
32.690315,0.011074,-0.041301,9.806252
32.696992,0.000748,0.071829,9.787696
32.706994,0.047437,-0.007333,9.808048
32.717035,-0.019304,-0.041451,9.799817
32.726891,0.001646,0.065394,9.812387
32.737022,0.055518,0.008679,9.806701
32.756965,0.003143,0.059857,9.821216
32.767308,0.024093,0.008380,9.815231
32.777028,-0.036962,-0.057613,9.837827
32.787027,-0.015413,0.073325,9.807449
32.797014,0.039206,0.015264,9.810592
32.807017,-0.022895,-0.054769,9.809245
32.830517,0.023494,0.005537,9.802062
32.837067,-0.033520,-0.046090,9.804007
32.846987,-0.016461,0.027834,9.827651
32.857021,0.035765,0.006884,9.819121
32.866635,-0.016012,-0.064197,9.821964
32.877006,-0.019154,0.045940,9.811340
32.898208,-0.012271,-0.048784,9.801014
32.907072,-0.016461,0.054470,9.818523
32.917012,0.017808,0.030228,9.815081
32.926902,-0.012720,-0.045192,9.809843
32.936433,-0.011074,0.027385,9.795927
32.947001,0.025140,0.043696,9.796525
32.966216,-0.018855,0.014366,9.829297
32.977086,0.032921,0.037411,9.824359
32.986536,0.012869,-0.045641,9.856382
32.997423,-0.029629,0.028432,9.840819
33.007033,0.050280,0.036214,9.831392
33.017037,0.013318,-0.045641,9.813584
33.041700,0.037860,-0.063000,9.842466
33.056990,-0.017658,0.036513,9.816877
33.067072,0.050579,0.054620,9.790689
33.076917,0.038758,-0.030378,9.820169
33.087019,0.009577,0.033071,9.807150
33.106167,0.046539,-0.023195,9.800266
33.117082,-0.010774,0.011074,9.802960
33.126947,0.046090,0.078263,9.807150
33.137018,0.056864,-0.038608,9.811340
33.147011,-0.005088,0.009278,9.811340
33.157066,0.050280,0.071679,9.811789
33.182553,0.055817,0.064496,9.795627
33.196973,0.061354,-0.004639,9.809245
33.207016,-0.004789,-0.016610,9.804905
33.217021,0.036064,0.068387,9.821216
33.227026,0.059408,-0.005836,9.820917
33.246690,0.037111,0.071080,9.801164
33.257088,0.059708,-0.020501,9.807748
33.266989,-0.014665,-0.015114,9.818373
33.276906,0.043396,0.068088,9.806402
33.287021,0.046539,-0.005537,9.797124
33.297213,0.010325,-0.005537,9.805803
33.317614,0.048784,-0.012121,9.789492
33.326973,-0.007931,-0.045791,9.795478
33.337090,0.032921,0.059558,9.816577
33.347044,0.059857,-0.005537,9.802511
33.357001,-0.004040,-0.039805,9.794131
33.367261,0.006734,0.063449,9.783806
33.393922,0.009577,0.071230,9.793083
33.406981,0.047138,0.011523,9.794879
33.416999,-0.023644,-0.031575,9.794580
33.427017,-0.005238,0.057014,9.797273
33.437022,0.042948,0.010924,9.798770
33.457810,0.005686,0.056715,9.791437
33.467109,0.053123,-0.001945,9.799668
33.476684,-0.013917,-0.032173,9.802960
33.486407,-0.011822,0.061204,9.810442
33.497011,0.043696,0.009278,9.790390
33.507018,-0.044893,-0.031575,9.811789
33.531871,-0.018855,-0.037411,9.815979
33.546982,-0.016760,0.027834,9.823910
33.556993,0.040853,0.016311,9.802960
33.567080,-0.016461,-0.057313,9.804307
33.576974,-0.041900,0.032622,9.823760
33.600937,-0.039506,0.058211,9.800566
33.617111,0.037261,0.035615,9.807000
33.626985,-0.020950,-0.033221,9.847853
33.636982,-0.028731,0.032024,9.824957
33.646976,0.038009,0.026636,9.830644
33.663716,-0.046838,0.037111,9.824059
33.677080,0.036363,0.071230,9.825556
33.686978,0.000299,-0.049382,9.828549
33.697012,-0.023195,0.041301,9.832439
33.707011,0.054171,0.042948,9.825257
33.717014,-0.001197,-0.046090,9.834834
33.737021,0.025140,0.063000,9.824957
33.747127,0.019154,-0.028731,9.840670
33.757051,-0.018855,0.031874,9.826454
33.767023,0.027834,0.070332,9.832290
33.776977,0.029480,-0.032921,9.834534
33.787013,-0.022746,0.011523,9.830045
33.810523,-0.011822,0.013318,9.817326
33.826958,0.061054,0.065544,9.818672
33.837016,0.053273,-0.041601,9.814333
33.847511,-0.014515,0.004340,9.813136
33.857041,0.047586,0.066142,9.795927
33.875420,0.004190,-0.017808,9.821067
33.887245,0.058959,-0.036363,9.827202
33.897004,0.012720,0.002993,9.808646
33.917091,0.062551,-0.020800,9.801014
33.927055,0.005836,-0.017209,9.810891
33.948761,0.051627,-0.051178,9.811041
33.956980,0.006435,0.002095,9.836929
33.967000,0.055218,0.064346,9.809843
33.976984,0.057164,-0.039057,9.807748
33.997033,0.055518,0.058959,9.805653
34.015998,0.053722,-0.013169,9.805504
34.017210,-0.009428,-0.024691,9.809095
34.027080,0.049532,0.059708,9.808197
34.037084,0.064795,-0.039955,9.789642
34.047006,0.025140,-0.011373,9.809843
34.057097,0.056116,0.056415,9.815679
34.067018,0.066441,-0.024392,9.805953
34.089721,0.050579,0.079909,9.814333
34.097182,0.044743,-0.037411,9.838724
34.106993,0.008230,-0.007482,9.811340
34.116918,0.037261,0.065544,9.801912
34.127012,0.044743,-0.029629,9.794879
34.137011,0.005836,-0.003143,9.797273
34.156358,0.062102,-0.023195,9.805653
34.167119,-0.003591,-0.020202,9.811639
34.177002,0.041152,0.057762,9.811938
34.187017,0.072577,-0.034717,9.816727
34.197008,0.017359,-0.002544,9.788145
34.207009,0.049681,0.066890,9.824957
34.232882,0.004938,-0.002694,9.794131
34.236692,0.041900,0.064795,9.835283
34.246968,0.066142,-0.049233,9.806851
34.257013,0.003591,-0.004489,9.805803
34.267031,0.059558,0.051627,9.815829
34.277007,0.044594,-0.025290,9.794879
34.297702,0.064945,0.048484,9.805055
34.307056,0.060007,-0.037261,9.803259
34.317137,0.009128,-0.001197,9.818223
34.327010,0.045791,0.072577,9.825556
34.337029,0.057463,-0.021549,9.811489
34.347010,0.002694,0.001197,9.828249
34.372591,0.047437,-0.036064,9.797872
34.376645,0.011822,0.026337,9.810143
34.386988,0.055069,0.071679,9.817176
34.396980,0.051477,-0.044743,9.799069
34.407010,-0.004040,0.029629,9.814033
34.417012,0.047138,0.067788,9.824359
34.438077,-0.010026,0.020800,9.807000
34.447065,0.042499,0.055667,9.831392
34.457013,0.029180,-0.036064,9.832439
34.467021,-0.010325,0.011523,9.802212
34.477022,0.036363,0.043546,9.823910
34.487014,0.009428,-0.060007,9.827950
34.511633,0.036812,0.046090,9.817176
34.516917,0.018107,-0.060007,9.836779
34.527008,-0.024242,0.023045,9.840371
34.536991,0.043097,0.052525,9.828249
34.547015,0.005986,-0.062102,9.809544
34.557009,-0.004489,0.043696,9.831242
34.579028,0.012121,-0.053273,9.811190
34.587005,-0.024541,0.033370,9.796974
34.596972,0.040703,0.050579,9.813734
34.606973,-0.006285,-0.054620,9.800117
34.616855,-0.018705,0.036214,9.811938
34.627029,0.011822,0.049981,9.818223
34.649726,-0.034119,0.043396,9.803259
34.657032,0.019603,0.046988,9.799668
34.667000,-0.031724,-0.040104,9.804307
34.676983,-0.043696,0.038608,9.821815
34.686986,0.007183,0.021848,9.821216
34.696972,-0.021848,-0.046988,9.815979
34.721232,0.016461,0.015563,9.815679
34.726840,-0.035465,-0.042199,9.808048
34.737012,-0.028283,0.038608,9.814632
34.746976,0.025739,0.020651,9.809245
34.757043,-0.007632,-0.063449,9.813734
34.766991,-0.011822,0.059109,9.813584
34.779901,0.056565,0.024242,9.810292
34.787013,-0.020202,-0.046988,9.794580
34.797035,-0.001646,0.053572,9.819720
34.806974,0.043546,0.014515,9.804456
34.816987,-0.019603,-0.027235,9.794430
34.827018,0.018556,0.085147,9.797872
34.837016,0.063449,-0.010026,9.797722
34.855042,0.036812,0.052076,9.807150
34.867079,0.068836,-0.020501,9.788893
34.877027,0.012271,-0.035914,9.815829
34.887013,0.036214,0.058959,9.782159
34.897004,0.069135,0.003292,9.815380
34.907005,0.011074,0.008081,9.818972
34.931308,0.055069,-0.012570,9.808646
34.936846,-0.005686,-0.008979,9.805953
34.946970,0.056116,0.062102,9.830943
34.957066,0.073026,-0.036214,9.809394
34.967165,0.009278,-0.015862,9.824359
34.977018,0.042948,0.074672,9.815829
34.995572,0.002095,0.003891,9.824059
35.007090,0.066441,0.073624,9.837228
35.017013,0.045342,0.004789,9.828549
35.027022,-0.006884,0.021848,9.795478
35.037014,0.060306,0.055966,9.797573
35.047046,0.040404,-0.047886,9.833337
35.071789,-0.009428,-0.054620,9.841717
35.087038,-0.028731,0.019603,9.832589
35.097014,0.033370,0.048784,9.795029
35.107033,-0.020651,-0.058361,9.822413
35.116843,-0.020651,0.048634,9.802960
35.136047,-0.026636,-0.070631,9.831093
35.147141,-0.011223,0.029180,9.832290
35.157043,0.037261,0.042050,9.827352
35.167009,-0.009727,-0.041601,9.795627
35.177088,-0.035016,0.033520,9.820917
35.187015,0.050729,0.040553,9.812387
35.212295,0.007183,0.013019,9.800566
35.226984,-0.021249,-0.067938,9.805653
35.236889,-0.032323,0.053572,9.798022
35.247001,0.020501,0.014515,9.831841
35.257003,-0.020950,-0.041152,9.811938
35.276906,0.051776,0.025140,9.808048
35.287223,-0.030976,-0.054769,9.807000
35.297018,-0.004340,0.041152,9.811489
35.307019,0.037560,0.032024,9.803259
35.317013,-0.013318,-0.031425,9.799668
35.327033,0.005836,0.061653,9.800566
35.353890,-0.000150,0.063598,9.801763
35.366994,0.061204,-0.000449,9.776623
35.376985,-0.000599,-0.048185,9.795328
35.387017,0.020501,0.086494,9.815979
35.397012,0.047138,-0.018855,9.798770
35.419799,0.066741,-0.020351,9.793532
35.437016,0.001945,-0.012121,9.791138
35.446976,0.042199,0.061503,9.798620
35.456980,0.076767,-0.032772,9.802212
35.467008,0.018406,-0.020950,9.787098
35.488475,0.049233,-0.024392,9.819271
35.497038,0.012121,0.015713,9.804307
35.506981,0.067639,0.076916,9.821665
35.517021,0.063149,-0.025290,9.797423
35.526736,0.008979,-0.013618,9.804756
35.536975,0.032173,0.071529,9.807299
35.558181,0.008530,0.011523,9.799069
35.567114,0.074821,0.086494,9.803558
35.576962,0.057014,-0.029629,9.793981
35.586979,0.005387,0.030527,9.792186
35.596977,0.048035,0.089337,9.811041
35.606976,0.024841,-0.019005,9.792186
35.625342,0.036663,0.070183,9.815530
35.637117,0.022446,-0.052674,9.821366
35.646977,-0.034568,0.029779,9.812088
35.656971,0.028582,0.078712,9.809394
35.667007,0.015563,-0.054470,9.829596
35.677039,-0.037111,0.032622,9.816428
35.699928,-0.032622,0.034418,9.801463
35.716995,0.024541,0.060605,9.798919
35.726981,-0.018556,-0.062700,9.805953
35.736755,-0.017359,0.035615,9.806701
35.746964,0.018705,0.037411,9.804307
35.770194,0.039955,0.016012,9.806701
35.787046,-0.020950,-0.060156,9.802361
35.796977,-0.012720,0.025439,9.824359
35.806968,0.022596,-0.016311,9.795627
35.816982,-0.027385,-0.055817,9.787397
35.836043,0.030078,0.004190,9.813884
35.837240,-0.021549,-0.048185,9.783955
35.847092,0.005986,0.052375,9.775276
35.857217,0.032772,0.014216,9.785601
35.867029,-0.024242,-0.053423,9.799368
35.877000,0.003891,0.070631,9.790091
35.897023,0.032024,0.017059,9.787098
35.916384,0.005088,0.066292,9.787996
35.927031,-0.007482,-0.026936,9.776772
35.937067,0.022147,0.051627,9.815231
35.947008,0.061803,-0.044893,9.792335
35.957010,-0.010475,-0.041301,9.774977
35.967003,0.039805,0.065843,9.779466
35.990273,0.019005,-0.030378,9.792934
35.996917,0.061204,0.073325,9.816727
36.007000,0.075270,-0.022895,9.801613
36.017009,0.004190,-0.025739,9.798620
36.027126,0.056864,0.086943,9.823162
36.037009,0.052824,-0.023494,9.806402
36.054666,0.001796,-0.018107,9.799518
36.056360,0.065544,0.051328,9.799967
36.067121,0.056715,-0.033819,9.791437
36.077103,0.002694,-0.017209,9.804307
36.087011,0.070332,0.057463,9.803558
36.096999,0.041002,-0.057463,9.786050
36.107003,-0.006734,0.009577,9.822264
36.131111,0.026337,-0.065394,9.813584
36.136921,-0.019154,-0.002993,9.815380
36.146969,0.048035,0.037860,9.815530
36.157074,-0.019454,-0.050879,9.813136
36.167012,-0.018107,0.015862,9.822413
36.177000,0.035166,0.044294,9.811938
36.198883,-0.028582,0.043546,9.824059
36.206920,0.034717,0.053123,9.807599
36.216987,-0.027834,-0.041152,9.780663
36.226974,-0.034867,0.047886,9.796675
36.236712,0.021698,0.020052,9.812687
36.247081,-0.019454,-0.051776,9.775276
36.267389,0.027385,0.020651,9.808347
36.276992,-0.021998,-0.053572,9.799817
36.287103,-0.013468,0.053423,9.797273
36.297009,0.033370,0.011971,9.800566
36.307102,-0.025140,-0.037560,9.786200
36.317009,-0.007632,0.049382,9.771834
36.339930,-0.010325,-0.038458,9.808048
36.346831,0.005686,0.061503,9.795927
36.356981,0.041900,-0.018107,9.774827
36.367042,-0.004938,-0.045791,9.788145
36.377012,0.029480,0.042199,9.775126
36.387003,0.057463,-0.010924,9.796376
36.406706,0.045043,0.063898,9.794580
36.416993,0.067040,-0.021549,9.778718
36.426981,0.014964,-0.020052,9.773929
36.437010,0.042349,0.049382,9.782459
36.447006,0.056565,-0.011223,9.804307
36.456999,0.013618,-0.017209,9.797872
36.480534,0.067489,-0.021998,9.787996
36.486981,0.000898,-0.012720,9.793832
36.496992,0.057762,0.060605,9.798321
36.506975,0.055069,-0.033819,9.789492
36.517008,0.004938,0.023045,9.793532
36.526997,0.051028,0.068237,9.791437
36.547526,-0.021249,-0.000599,9.803259
36.557082,0.032024,0.040553,9.812836
36.566984,-0.003891,-0.048035,9.811489
36.576973,-0.016311,0.025739,9.792784
36.587011,0.031126,0.057912,9.773929
36.596997,-0.012420,-0.039206,9.802810
36.618760,0.030677,0.049382,9.767943
36.626996,-0.014366,-0.027834,9.799967
36.637144,-0.020501,0.032473,9.808946
36.646999,0.021100,0.000449,9.795328
36.657008,-0.031425,-0.049382,9.776174
36.667000,-0.033520,0.029779,9.790988
36.691770,-0.026487,-0.047287,9.759414
36.696725,-0.008380,0.060456,9.804756
36.706976,0.043247,0.006285,9.792485
36.716973,-0.012271,-0.031275,9.777520
36.727005,-0.007033,0.074971,9.776024
36.737016,0.021549,0.020052,9.779017
36.750653,-0.013019,-0.026337,9.772433
36.756872,0.016610,0.064047,9.765699
36.767031,0.063149,-0.005537,9.790390
36.776742,0.022446,-0.032323,9.781860
36.786962,0.040703,0.060306,9.781112
36.796950,0.072876,-0.023644,9.790988
36.806961,0.011822,-0.001945,9.780663
36.823250,0.055817,-0.037111,9.802062
36.836992,0.018855,-0.012121,9.790091
36.846760,0.050280,0.065993,9.800117
36.856946,0.066142,-0.021100,9.785901
36.866976,0.007931,-0.003143,9.819570
36.876622,0.061204,0.061054,9.787397
36.897195,0.010475,0.016012,9.812387
36.907112,0.054919,0.048634,9.803708
36.916962,-0.006435,-0.048784,9.794729
36.926954,-0.021998,0.004938,9.783357
36.936975,0.029929,0.047736,9.783506
36.946962,0.009278,-0.042349,9.791437
36.960131,-0.021100,0.029180,9.794580
36.967019,0.018406,0.033670,9.795328
36.977026,-0.004938,-0.023644,9.782908
36.986988,-0.019753,0.065244,9.791737
36.996965,0.046240,0.046689,9.793233
