time_tick,acc_X_value,acc_Y_value,acc_Z_value
0.005997,-0.002993,0.029031,-9.815829
0.013862,0.029180,0.051178,-9.813435
0.023909,0.122857,0.076767,-9.795328
0.033677,0.158472,0.036812,-9.802212
0.043876,0.172838,-0.020800,-9.809544
0.053641,0.150690,-0.044145,-9.837677
0.063660,0.094275,-0.062102,-9.848002
0.073947,0.033819,-0.067938,-9.872843
0.083768,-0.003741,-0.047287,-9.869102
0.093986,-0.003591,0.015114,-9.833786
0.103725,0.013618,0.037560,-9.777371
0.113662,0.052824,0.079011,-9.794131
0.123637,0.106546,0.074373,-9.791138
0.133729,0.135726,0.061952,-9.768991
0.143925,0.156527,0.011672,-9.795927
0.153688,0.129890,-0.021100,-9.843064
0.163666,0.087691,-0.058361,-9.877931
0.173641,0.004489,-0.075420,-9.848152
0.182884,0.003442,-0.047586,-9.870748
0.193652,0.002544,-0.030228,-9.873442
0.203785,0.044294,0.016012,-9.832140
0.213899,0.042199,0.023793,-9.784853
0.223692,0.105349,0.070183,-9.763753
0.233782,0.144256,0.065843,-9.795478
0.243841,0.162512,0.056565,-9.768093
0.253749,0.155180,0.017059,-9.799219
0.263688,0.082004,-0.015563,-9.856083
0.273662,0.020501,-0.037411,-9.871496
0.283746,-0.024093,-0.074223,-9.871496
0.293939,-0.036363,-0.067938,-9.882869
0.303661,0.027235,-0.043097,-9.837378
0.313745,0.045342,0.022446,-9.815081
0.323710,0.080209,0.055966,-9.774977
0.333787,0.104600,0.074223,-9.754475
0.343679,0.168797,0.065095,-9.753428
0.353842,0.200821,0.044145,-9.796824
0.363651,0.135427,-0.004489,-9.848751
0.373685,0.052824,-0.046689,-9.854287
0.383735,-0.013618,-0.077515,-9.867905
0.393717,-0.042050,-0.048784,-9.876883
0.403670,-0.019304,-0.042349,-9.874489
0.413725,0.047437,-0.007632,-9.827801
0.424063,0.088289,0.040553,-9.810143
0.433755,0.118966,0.071080,-9.777520
0.443709,0.127346,0.076019,-9.775276
0.453624,0.151139,0.067339,-9.780813
0.463676,0.131536,0.015563,-9.815081
0.473956,0.105648,-0.037860,-9.852043
0.483737,0.021549,-0.051926,-9.863116
0.494142,-0.039506,-0.070332,-9.880924
0.503707,-0.039805,-0.034119,-9.869102
0.513531,0.002993,-0.038608,-9.839173
0.523946,0.079760,0.019005,-9.794879
0.533665,0.134529,0.061803,-9.792934
0.543905,0.136325,0.074373,-9.770338
0.553687,0.140365,0.056864,-9.773330
0.563826,0.134379,0.032473,-9.813435
0.573945,0.109090,-0.009278,-9.837527
0.583781,0.041750,-0.045192,-9.859076
0.593068,-0.021549,-0.070332,-9.858178
0.603659,-0.030826,-0.044893,-9.879128
0.613684,-0.031874,-0.025140,-9.834534
0.623925,0.038009,0.017059,-9.806252
0.633817,0.109838,0.032323,-9.817475
0.643638,0.179272,0.046389,-9.781860
0.653616,0.164308,0.045940,-9.778119
0.663642,0.118517,0.050579,-9.823611
0.673731,0.080358,-0.013468,-9.821366
0.683710,0.057613,-0.037111,-9.861919
0.693640,0.020351,-0.041750,-9.866408
0.703674,-0.008081,-0.052375,-9.867905
0.713667,0.004340,-0.045791,-9.848601
0.723742,0.023494,0.008979,-9.827352
0.733746,0.074522,0.036214,-9.806252
0.743746,0.132434,0.059857,-9.778867
0.753702,0.167151,0.057762,-9.801014
0.763623,0.143508,0.024541,-9.805803
0.773772,0.082004,0.014216,-9.830195
0.783700,0.045641,-0.026786,-9.819720
0.793703,0.006734,-0.039805,-9.859525
0.803646,0.022895,-0.040703,-9.856233
0.813815,0.014366,-0.030078,-9.856382
0.823854,0.016461,-0.021998,-9.832290
0.833675,0.034717,0.041601,-9.824059
0.843753,0.115973,0.045192,-9.795178
0.853599,0.156078,0.067938,-9.789193
0.863638,0.163560,0.030677,-9.790539
0.873772,0.125550,0.016461,-9.809095
0.883636,0.044145,-0.011672,-9.847254
0.893743,-0.001347,-0.020202,-9.827651
0.903701,0.024093,-0.048933,-9.873142
0.913750,0.007033,-0.047586,-9.871197
0.923676,0.032622,-0.020950,-9.833188
0.933672,0.088738,0.011074,-9.827052
0.943695,0.103254,0.023045,-9.799368
0.953636,0.130339,0.055368,-9.791587
0.963631,0.141113,0.052674,-9.786948
0.973617,0.123156,0.043696,-9.789492
0.983791,0.077964,0.008979,-9.809694
0.993638,0.027834,-0.011971,-9.840221
1.003635,-0.006285,-0.011074,-9.853539
1.013539,0.028432,0.007632,-9.822713
1.023695,0.064945,-0.021249,-9.873292
1.033711,0.058810,-0.021848,-9.817176
1.043641,0.079909,-0.007931,-9.809993
1.053759,0.121510,0.036064,-9.787247
1.073770,0.096520,0.015114,-9.815679
1.093626,0.014366,-0.021549,-9.839473
1.103697,0.011074,-0.025439,-9.863565
1.113647,0.044145,-0.037261,-9.859674
1.124044,0.070482,-0.029031,-9.829147
1.143629,0.138420,0.024841,-9.786798
1.153648,0.116721,0.042050,-9.805055
1.163579,0.081555,0.031724,-9.783357
1.173630,0.049233,0.027085,-9.790390
1.193745,0.049083,-0.023793,-9.859076
1.203665,0.023494,-0.029779,-9.853539
1.213669,0.033670,-0.038458,-9.863565
1.223904,0.069135,-0.033670,-9.844112
1.233693,0.087691,-0.012570,-9.812238
1.243797,0.119864,0.016910,-9.796824
1.253644,0.098166,0.058959,-9.795478
1.263767,0.086943,0.042648,-9.778867
1.273475,0.046539,0.049233,-9.800416
1.283713,0.042499,0.030826,-9.806551
1.293634,0.040853,-0.013169,-9.845159
1.303628,0.046539,-0.055218,-9.841418
1.313627,0.052974,-0.043097,-9.859375
1.323664,0.055667,-0.068387,-9.875537
1.333705,0.076318,-0.001496,-9.853389
1.343621,0.098914,0.002095,-9.807000
1.353638,0.124802,0.043247,-9.776024
1.363631,0.095472,0.071829,-9.786798
1.373617,0.054769,0.091731,-9.768692
1.383631,0.037411,0.054769,-9.802062
1.393611,0.036962,0.000299,-9.820318
1.403719,0.048933,-0.035615,-9.851743
1.413673,0.044743,-0.056565,-9.882719
1.423614,0.059259,-0.058959,-9.865660
1.433642,0.060456,-0.032772,-9.868503
1.443603,0.074672,0.006285,-9.823012
1.453616,0.100560,0.035914,-9.815380
1.463618,0.113579,0.054769,-9.799219
1.473655,0.081406,0.070482,-9.799219
1.483651,0.049382,0.047287,-9.804756
1.493626,0.020501,0.016461,-9.831991
1.503681,0.018107,-0.038907,-9.845907
1.513432,0.040553,-0.073924,-9.848751
1.523610,0.073924,-0.072726,-9.876434
1.533644,0.065843,-0.038009,-9.861620
1.543700,0.083950,-0.008380,-9.828998
1.553642,0.090833,0.029180,-9.808048
1.563618,0.109988,0.054919,-9.771834
1.573607,0.106546,0.066441,-9.784105
1.583624,0.084848,0.047437,-9.772433
1.593505,0.047586,0.027834,-9.788744
1.603615,0.043845,-0.026636,-9.852641
1.613700,0.046090,-0.043396,-9.870898
1.623707,0.073475,-0.049233,-9.864762
1.633643,0.053722,-0.022895,-9.870449
1.643608,0.077814,-0.027085,-9.833337
1.653693,0.070631,0.015713,-9.818223
1.663618,0.106845,0.060156,-9.797722
1.673618,0.107444,0.046988,-9.780813
1.683299,0.095472,0.041301,-9.784105
1.693594,0.086344,0.016161,-9.809245
1.703679,0.052525,-0.003891,-9.856981
1.713615,0.022746,-0.030078,-9.869252
1.723605,0.052525,-0.043097,-9.871347
1.733636,0.049681,-0.034268,-9.858477
1.743598,0.088738,-0.014515,-9.849199
1.753712,0.104900,-0.007183,-9.820318
1.763629,0.096669,0.025739,-9.806851
1.773589,0.114477,0.046389,-9.829147
1.783622,0.088589,0.055966,-9.790689
1.793605,0.076767,0.031425,-9.791138
1.803604,0.047287,0.006884,-9.812986
1.813630,0.048185,-0.020950,-9.867755
1.823652,0.003591,-0.048933,-9.861321
1.833699,0.053871,-0.034568,-9.850846
1.843686,0.076318,-0.025589,-9.881373
1.853593,0.105798,0.000898,-9.827052
1.863682,0.118368,0.024093,-9.801763
1.873608,0.073475,0.035914,-9.775575
1.883608,0.116123,0.071829,-9.806551
1.893635,0.104750,0.027085,-9.811639
1.903715,0.039506,0.007183,-9.795029
1.913684,-0.017658,0.003442,-9.861321
1.923646,0.003591,-0.030677,-9.869252
1.933654,0.050130,-0.034418,-9.829896
1.943610,0.073624,-0.017508,-9.850097
1.953603,0.092779,-0.005238,-9.830793
1.963664,0.127645,0.015114,-9.792784
1.973521,0.141712,0.051028,-9.800416
1.983663,0.118816,0.044444,-9.784554
1.993609,0.112083,0.032323,-9.821516
2.003618,0.071978,0.019603,-9.835732
2.013389,0.021100,-0.008380,-9.853389
2.023611,0.004489,-0.029480,-9.894541
2.033670,0.003591,-0.036363,-9.881073
2.043556,0.052974,-0.014815,-9.834684
2.053639,0.105049,-0.004040,-9.842914
2.063614,0.105199,0.030976,-9.791737
2.073609,0.140066,0.049681,-9.786948
2.083608,0.130189,0.059259,-9.793083
2.093611,0.098615,0.027085,-9.804456
2.103652,0.073924,0.027983,-9.820618
2.113563,0.048933,-0.022446,-9.853240
2.123611,0.017059,-0.045342,-9.865062
2.133634,0.006584,-0.049681,-9.857879
2.143626,0.018107,-0.041750,-9.842914
2.153605,0.086943,-0.013169,-9.837228
2.163621,0.104301,0.036812,-9.831093
2.173681,0.127047,0.046240,-9.792485
2.182915,0.119415,0.045342,-9.787547
2.193617,0.096220,0.039057,-9.808197
2.203617,0.089038,0.011074,-9.830494
2.213671,0.048185,-0.019454,-9.831242
2.223634,0.035166,-0.025589,-9.844261
2.233617,0.021399,-0.037261,-9.862218
2.243678,0.022147,-0.040853,-9.861021
2.253525,0.058361,-0.016910,-9.850397
2.263268,0.082753,0.007931,-9.816577
2.273741,0.117919,0.045192,-9.787247
2.283625,0.117919,0.059408,-9.796376
2.293609,0.111783,0.037411,-9.804456
2.303619,0.060755,0.017209,-9.824658
2.313666,0.047586,0.013318,-9.839173
2.323487,0.022746,-0.023943,-9.857430
2.333650,0.042050,-0.041900,-9.855933
2.343612,0.027983,-0.044145,-9.868354
2.353613,0.070332,0.003442,-9.853240
2.363626,0.064346,-0.001945,-9.830045
2.373616,0.110137,0.012869,-9.794131
2.383678,0.100560,0.044743,-9.787846
2.393497,0.114028,0.044594,-9.795478
2.403621,0.079311,0.026337,-9.804157
2.413679,0.048784,0.008230,-9.818822
2.423614,0.050879,-0.010625,-9.837976
2.433658,0.034867,-0.039805,-9.862069
2.443613,0.046090,-0.034119,-9.864164
2.453678,0.039955,-0.030228,-9.829896
2.463490,0.070781,-0.002394,-9.821815
2.473613,0.076767,0.016610,-9.792485
2.483609,0.107294,0.042050,-9.823162
2.493620,0.103703,0.027684,-9.796675
2.503613,0.089935,0.023793,-9.784703
2.512974,0.059109,0.002843,-9.832140
2.523639,0.052225,-0.010475,-9.844261
2.533458,0.036064,-0.027534,-9.855036
2.543621,0.042798,-0.039206,-9.866259
2.553615,0.046988,-0.023045,-9.834834
2.563522,0.078862,-0.018705,-9.824508
2.573601,0.086793,0.014964,-9.811041
2.583615,0.104002,0.036214,-9.800715
2.593658,0.112382,0.036214,-9.789941
2.603579,0.098315,0.043546,-9.838276
2.613666,0.077515,0.028731,-9.817625
2.623650,0.025589,-0.003292,-9.845907
2.633641,0.023793,-0.021848,-9.848451
2.643611,0.036812,-0.036363,-9.841568
2.653616,0.051776,-0.022297,-9.848152
2.663666,0.075270,-0.015413,-9.811639
2.673169,0.087840,0.021249,-9.811639
2.683630,0.088589,0.037710,-9.812687
2.693611,0.118218,0.044145,-9.800117
2.703614,0.092330,0.037710,-9.789791
2.713608,0.083950,0.004040,-9.824957
2.723605,0.064646,-0.020052,-9.841418
2.733692,0.044743,-0.037111,-9.833786
2.743254,0.036064,-0.024242,-9.837228
2.753656,0.039506,-0.033221,-9.848002
2.763606,0.057463,-0.001197,-9.834385
2.773612,0.064496,0.021998,-9.804307
2.783687,0.110586,0.027385,-9.784404
2.793618,0.134230,0.033520,-9.800117
2.803645,0.089636,0.037860,-9.793233
2.813457,0.086793,0.011822,-9.803259
2.823596,0.058061,0.009876,-9.857579
2.833642,0.044294,-0.036663,-9.841568
2.843614,0.029779,-0.064646,-9.845608
2.853613,0.036214,-0.035166,-9.856532
2.863613,0.043097,0.002245,-9.845159
2.873662,0.054769,0.017209,-9.833637
2.883392,0.083201,0.037860,-9.805953
2.893599,0.135277,0.055368,-9.824359
2.903635,0.110436,0.032921,-9.810143
2.913613,0.107893,0.009577,-9.772133
2.923686,0.105049,-0.010325,-9.797722
2.933638,0.065394,-0.030826,-9.880176
2.943621,0.034867,-0.071529,-9.859375
2.953395,0.033221,-0.050879,-9.834385
2.963605,0.048335,-0.002694,-9.867306
2.973600,0.058810,0.004190,-9.816428
2.983607,0.069135,0.037261,-9.764801
2.993640,0.112382,0.064795,-9.797124
3.003611,0.113429,0.051178,-9.813136
3.012927,0.115973,0.025290,-9.801912
3.023440,0.092629,-0.008230,-9.807449
3.033636,0.077216,-0.024541,-9.851594
3.043598,0.072427,-0.052375,-9.863565
3.053615,0.029779,-0.068985,-9.823611
3.063610,0.021848,-0.030228,-9.849499
3.073599,0.055218,0.019603,-9.837827
3.083671,0.077216,0.016461,-9.784105
3.093366,0.094874,0.046539,-9.780962
3.103608,0.096220,0.042349,-9.802661
3.113612,0.103254,0.012271,-9.814482
3.123614,0.094724,-0.005537,-9.805204
3.133627,0.069883,-0.007033,-9.831542
3.143611,0.068686,-0.031275,-9.836480
3.153647,0.045791,-0.016760,-9.845758
3.163330,0.028881,-0.017209,-9.880475
3.173074,0.021549,0.003591,-9.841867
3.182851,0.083650,-0.002694,-9.821067
3.193583,0.090534,0.016760,-9.818822
3.203637,0.091282,0.022147,-9.815530
3.213657,0.096520,0.007333,-9.788594
3.223650,0.108341,0.011971,-9.827651
3.233333,0.107444,-0.019454,-9.849499
3.243600,0.071230,-0.018256,-9.859375
3.253556,0.047437,-0.038009,-9.832140
3.263164,0.026786,-0.024691,-9.831242
3.273412,0.044444,0.007482,-9.821067
3.283609,0.044743,0.029330,-9.779915
3.293635,0.053871,0.054620,-9.787547
3.303358,0.072427,0.023494,-9.820019
3.313600,0.064646,0.023494,-9.807748
3.323613,0.093228,0.000449,-9.800117
3.333610,0.102356,-0.011822,-9.844710
3.343597,0.107444,-0.038458,-9.856083
3.353614,0.091282,-0.051178,-9.854587
3.363677,0.041900,-0.005387,-9.829596
3.383688,0.079909,0.048634,-9.777820
3.393628,0.092330,0.060905,-9.767794
3.413638,0.104451,0.003292,-9.807449
3.423603,0.070482,-0.030378,-9.826154
3.433668,0.067788,-0.034418,-9.863715
3.453629,0.069734,-0.035465,-9.849499
3.463624,0.054769,-0.002843,-9.842316
3.473697,0.014066,0.040254,-9.785152
3.483601,0.077665,0.046838,-9.796226
3.493625,0.092180,0.048784,-9.779167
3.503675,0.136624,0.030228,-9.793383
3.523606,0.082902,-0.028133,-9.815530
3.533628,0.072278,-0.051776,-9.853389
3.543609,0.074073,-0.059857,-9.879577
3.553603,0.084997,-0.043396,-9.850846
3.563609,0.075121,0.008081,-9.830793
3.573650,0.052225,0.027385,-9.810442
3.583224,0.020800,0.051328,-9.779316
3.593596,0.061952,0.052076,-9.791138
3.603620,0.101159,0.043845,-9.791886
3.613666,0.114626,0.026636,-9.824359
3.623499,0.097866,-0.025589,-9.815231
3.633606,0.063748,-0.037261,-9.838425
3.643646,0.048933,-0.046090,-9.856083
3.653178,0.054769,-0.030078,-9.865062
3.663597,0.042499,0.004190,-9.830045
3.673130,0.052076,0.013019,-9.787247
3.683597,0.052375,0.044145,-9.804007
3.693608,0.056116,0.066591,-9.785302
3.703612,0.074821,0.026936,-9.774079
3.713189,0.127945,0.020651,-9.808347
3.723291,0.116422,-0.027983,-9.826454
3.733626,0.093228,-0.064496,-9.831991
3.743594,0.049681,-0.053273,-9.861620
3.753626,0.016610,-0.023344,-9.850097
3.763623,0.033221,0.000599,-9.823012
3.773644,0.059109,0.032473,-9.802661
3.783650,0.073774,0.055368,-9.798022
3.793200,0.095472,0.038608,-9.789791
3.803610,0.068387,0.024841,-9.782459
3.813645,0.098315,0.031425,-9.795627
3.823595,0.122558,-0.015413,-9.817774
3.833630,0.066441,-0.061354,-9.845608
3.843589,0.121510,-0.034568,-9.807748
3.853646,0.002993,-0.041152,-9.846805
3.863153,-0.020800,-0.032024,-9.859525
3.873584,-0.000748,0.013767,-9.814632
3.883601,0.070781,0.047138,-9.801014
3.893602,0.074073,0.053572,-9.790240
3.903628,0.083052,0.035765,-9.780962
3.913269,0.098166,0.000150,-9.825556
3.923612,0.092779,0.008530,-9.834834
3.933120,0.073475,-0.020351,-9.805055
3.943585,0.074672,-0.025290,-9.844860
3.953599,0.085446,-0.016311,-9.826753
3.963597,0.036962,0.008829,-9.818822
3.973617,0.012570,0.007781,-9.832140
3.983609,0.049083,0.032473,-9.807150
3.993615,0.061952,0.050130,-9.791886
4.003149,0.089486,0.020052,-9.809394
4.013736,0.108491,0.023195,-9.804606
4.023599,0.067938,0.011074,-9.823162
4.033626,0.089786,-0.012420,-9.861620
4.043602,0.046539,-0.042050,-9.829147
4.053611,0.051028,-0.027235,-9.841568
4.063652,0.012121,-0.019753,-9.837078
4.073258,0.043696,0.022596,-9.825706
4.083613,0.013169,0.040254,-9.779316
4.093612,0.082304,0.043696,-9.793083
4.103593,0.077365,0.016760,-9.786050
4.113685,0.113878,0.018855,-9.809843
4.122865,0.107144,0.018855,-9.799368
4.133767,0.095023,-0.007183,-9.831542
4.143041,0.036962,0.001796,-9.824359
4.153608,0.043696,-0.014964,-9.840670
4.162887,0.029180,0.000599,-9.838425
4.173589,0.030677,0.011223,-9.818223
4.182826,0.069434,0.031874,-9.798919
4.193579,0.027235,0.045192,-9.800266
4.203683,0.108491,0.039655,-9.798770
4.213130,0.073774,0.015264,-9.808048
4.223595,0.088140,-0.008679,-9.822114
4.233627,0.094125,0.015862,-9.828249
4.243571,0.054919,-0.021698,-9.778269
4.253597,0.054620,0.012271,-9.824059
4.263602,0.010026,-0.001796,-9.831242
4.273655,0.060306,-0.011074,-9.809694
4.282997,0.039356,0.026038,-9.809694
4.293590,0.084548,0.020351,-9.818373
4.303679,0.060605,0.051028,-9.822264
4.313657,0.068237,0.017359,-9.799518
4.323684,0.104600,-0.005986,-9.810292
4.333696,0.079311,0.005537,-9.835881
4.343611,0.086643,-0.012420,-9.844411
4.352954,0.037860,-0.001048,-9.810891
4.363599,0.045641,-0.024841,-9.821216
4.373594,0.023045,-0.019903,-9.820917
4.383606,0.036363,0.029180,-9.791437
4.393609,0.081106,0.037111,-9.811190
4.403628,0.083052,0.055218,-9.795627
4.413545,0.105199,0.000599,-9.813285
4.423602,0.078712,0.024392,-9.823012
4.433669,0.065693,-0.001496,-9.816278
4.443624,0.105648,0.001347,-9.816577
4.453623,0.078712,0.035465,-9.826154
4.463608,0.021698,-0.030976,-9.817326
4.473647,0.041900,-0.027235,-9.825855
4.483681,0.029180,0.026936,-9.817924
4.503593,0.089187,0.018406,-9.792036
4.513607,0.086643,0.019154,-9.818373
4.523613,0.083201,0.015114,-9.812387
4.533501,0.115524,0.009278,-9.824658
4.543614,0.081705,0.032772,-9.822862
4.553659,0.046689,-0.024541,-9.825107
4.563581,0.042199,-0.039356,-9.818972
4.573602,0.036962,0.026487,-9.828100
4.583604,0.054171,0.041002,-9.786948
4.593590,0.076767,0.000449,-9.834534
4.603382,0.076617,0.001496,-9.821366
4.613629,0.089935,0.027534,-9.795927
4.623646,0.116123,-0.004190,-9.807898
4.633196,0.078563,0.036363,-9.822114
4.643603,0.039206,0.002993,-9.821366
4.653596,0.061503,-0.019154,-9.818373
4.663596,0.068836,0.019005,-9.825556
4.673621,0.050879,0.049382,-9.824508
4.683602,0.059857,-0.028881,-9.806102
4.693656,0.038159,-0.005686,-9.799069
4.704803,0.070631,0.030378,-9.815081
4.713226,0.088439,0.001646,-9.810292
4.723656,0.086344,0.024691,-9.798321
4.733638,0.065693,0.006884,-9.793532
4.743576,0.066741,-0.011971,-9.825406
4.753623,0.079161,0.009428,-9.820767
4.763709,0.038458,0.040104,-9.817924
4.773238,0.063598,-0.030378,-9.824508
4.783638,0.035914,-0.025589,-9.827202
4.793623,0.069584,0.039206,-9.817924
4.803624,0.084997,0.016012,-9.798471
4.813658,0.083800,-0.003891,-9.811190
4.823824,0.077216,0.007482,-9.800266
4.833267,0.065394,0.001496,-9.790240
4.843592,0.090384,0.002095,-9.820917
4.853614,0.076617,0.039805,-9.819869
4.863662,0.043396,-0.002095,-9.816128
4.873611,0.058061,-0.031575,-9.832439
4.883639,0.074223,0.017059,-9.815380
4.893618,0.073325,0.014216,-9.808048
4.903696,0.091432,-0.035465,-9.820468
4.914233,0.070033,-0.006135,-9.805504
4.923712,0.057613,0.030378,-9.786200
4.933727,0.084997,0.011223,-9.808048
4.943587,0.075570,0.028881,-9.798321
4.953604,0.036513,-0.009727,-9.810143
4.963602,0.058061,-0.030378,-9.832589
4.973642,0.081555,-0.008679,-9.817924
4.985973,0.051028,0.028881,-9.817475
4.993648,0.058510,-0.033819,-9.825257
5.003644,0.069135,-0.012570,-9.823162
5.013643,0.082304,0.035166,-9.804307
5.023194,0.103553,0.027834,-9.815530
5.033629,0.079760,-0.001347,-9.812986
5.043625,0.049532,0.004489,-9.789642
5.053033,0.041601,-0.001197,-9.802361
5.063586,0.065544,-0.024691,-9.835881
5.073608,0.051627,0.024392,-9.814482
5.083631,0.048335,-0.030378,-9.801613
5.093758,0.065693,-0.057613,-9.818523
5.103604,0.078114,0.030677,-9.799368
5.113686,0.070332,0.028133,-9.805204
5.122968,0.087242,-0.057164,-9.811938
5.133673,0.057313,0.014665,-9.809245
5.143267,0.054769,0.017059,-9.815081
5.153355,0.081555,-0.016461,-9.803409
5.163607,0.056116,-0.024841,-9.824359
5.173622,0.056864,0.003891,-9.817625
5.182875,0.054919,-0.021848,-9.823461
5.193028,0.089636,0.008679,-9.806551
5.203583,0.067938,0.028432,-9.788744
5.213733,0.087990,-0.010026,-9.817176
5.223591,0.076168,-0.035316,-9.814033
5.233622,0.084698,0.049681,-9.808347
5.243773,0.068088,0.035166,-9.815380
5.253631,0.065993,-0.036513,-9.804905
5.262969,0.051627,-0.030228,-9.802361
5.273684,0.070482,0.018107,-9.814632
5.283598,0.080358,0.005238,-9.803109
5.293594,0.082603,-0.024093,-9.812537
5.303693,0.061503,-0.012720,-9.774677
5.313658,0.072577,-0.004190,-9.830344
5.323906,0.093676,0.013618,-9.815380
5.332944,0.072278,0.043546,-9.811190
5.343594,0.051328,-0.013169,-9.832739
5.353608,0.061054,-0.036064,-9.814931
5.363622,0.064496,0.005537,-9.797124
5.373589,0.062700,0.034568,-9.814333
5.383600,0.071230,-0.063898,-9.819421
5.393638,0.067190,-0.023793,-9.818523
5.402986,0.075869,0.020651,-9.804905
5.413616,0.068536,0.021698,-9.808646
5.423754,0.084399,-0.037261,-9.786798
5.433616,0.045043,-0.001347,-9.804606
5.443620,0.078563,0.001496,-9.802810
5.453651,0.081555,-0.015264,-9.821216
5.463369,0.070931,0.031275,-9.819869
5.472849,0.063598,-0.015862,-9.797423
5.483615,0.081855,-0.048185,-9.800566
5.493622,0.085446,0.018855,-9.826903
5.503613,0.082603,0.042499,-9.810592
5.513605,0.070631,-0.038009,-9.797124
5.523599,0.050430,-0.028881,-9.805504
5.533641,0.082304,0.046389,-9.812537
5.543102,0.081555,0.005537,-9.808048
5.553592,0.051627,-0.016311,-9.813285
5.563609,0.060456,-0.026038,-9.795927
5.573604,0.065993,0.000748,-9.824209
5.583609,0.092180,0.000299,-9.819121
5.593603,0.079011,0.016461,-9.816877
5.603674,0.075121,0.000150,-9.804007
5.613504,0.077216,-0.027385,-9.803558
5.623598,0.075719,0.022746,-9.788744
5.634081,0.079760,0.046838,-9.793532
5.643223,0.055368,-0.032323,-9.824209
5.652923,0.048335,-0.042349,-9.809993
5.663586,0.062551,0.009128,-9.822114
5.673675,0.052076,-0.039206,-9.830644
5.693615,0.074821,0.037411,-9.795627
5.713568,0.070033,0.004340,-9.818373
5.723750,0.056116,0.013318,-9.815231
5.733616,0.064795,-0.043396,-9.824957
5.743647,0.064646,-0.024093,-9.828249
5.753826,0.069883,0.002095,-9.828249
5.763599,0.037710,-0.043247,-9.817774
5.773587,0.041152,-0.026188,-9.809394
5.783596,0.087541,0.036962,-9.803558
5.793468,0.088888,0.053722,-9.795178
5.803810,0.094275,-0.017658,-9.809694
5.813667,0.091133,-0.015264,-9.805354
5.823752,0.085446,0.049532,-9.825556
5.833685,0.087990,0.027534,-9.792335
5.843597,0.033969,-0.073026,-9.826454
5.853608,0.034568,-0.044444,-9.839024
5.863597,0.061054,0.022147,-9.813136
5.873603,0.079161,0.010924,-9.818074
5.883653,0.060605,-0.057463,-9.810592
5.894320,0.068237,-0.011223,-9.821665
5.903607,0.064795,0.049532,-9.793083
5.913591,0.085446,0.024242,-9.801613
5.923592,0.071380,-0.046838,-9.808646
5.933609,0.057613,-0.028432,-9.799069
5.943600,0.057313,0.029929,-9.792934
5.953672,0.058061,0.029031,-9.825556
5.964511,0.054320,-0.053123,-9.820917
5.973615,0.053572,-0.033670,-9.833936
5.983597,0.072726,0.042648,-9.826454
5.993602,0.073325,0.051178,-9.785003
6.003615,0.080658,-0.038009,-9.773630
6.013644,0.052076,-0.030228,-9.821067
6.023652,0.057164,0.034568,-9.787696
6.035104,0.069285,0.021399,-9.789791
6.043639,0.059109,-0.024392,-9.810741
6.053610,0.053273,-0.055218,-9.826154
6.063588,0.073475,0.010475,-9.823611
6.073608,0.061653,0.031724,-9.822713
6.083613,0.052225,0.007482,-9.805803
6.093671,0.069434,-0.020351,-9.814931
6.106179,0.106396,0.027983,-9.797573
6.113623,0.075719,0.059408,-9.790390
6.123590,0.064496,0.002394,-9.799219
6.133627,0.055218,-0.038309,-9.810592
6.143647,0.086045,-0.010475,-9.800566
6.153623,0.065693,0.022895,-9.800416
6.163660,0.054320,-0.001048,-9.827202
6.172939,0.046988,0.006135,-9.801463
6.183604,0.073325,-0.003891,-9.798022
6.193599,0.050579,-0.004040,-9.826454
6.203611,0.076019,-0.004340,-9.807150
6.213190,0.088888,0.019005,-9.787846
6.223649,0.095622,-0.010625,-9.802212
6.233443,0.055069,-0.020651,-9.825556
6.243008,0.066741,-0.007482,-9.817924
6.253605,0.082154,0.035914,-9.804007
6.263598,0.091581,-0.006884,-9.803109
6.273601,0.059558,-0.033969,-9.807150
6.283617,0.043845,-0.017209,-9.811639
6.293586,0.046689,0.064945,-9.798321
6.303654,0.054021,0.040254,-9.792784
6.313003,0.060456,-0.013019,-9.805653
6.323689,0.080059,-0.005836,-9.821516
6.333646,0.090534,0.050729,-9.780513
6.343788,0.070033,0.034717,-9.786649
6.353615,0.072577,-0.050130,-9.824508
6.363608,0.065394,-0.051178,-9.818672
6.373743,0.105199,0.000449,-9.817026
6.382854,0.069883,0.029480,-9.800865
6.393700,0.031275,-0.040703,-9.811041
6.403610,0.018705,-0.030826,-9.814033
6.413649,0.066292,0.027684,-9.818223
6.423747,0.105798,0.049382,-9.768093
6.433608,0.069584,-0.008829,-9.788145
6.443683,0.081555,-0.027684,-9.798471
6.452847,0.092180,0.001646,-9.818373
6.463590,0.093377,0.002993,-9.799668
6.473709,0.075121,-0.026038,-9.811190
6.483595,0.083501,-0.021249,-9.827202
6.493787,0.089337,-0.012570,-9.811789
6.503270,0.054919,-0.009727,-9.805953
6.513645,0.015413,0.007333,-9.807599
6.523272,0.038309,0.008530,-9.814782
6.533689,0.062700,-0.003143,-9.786050
6.543599,0.048933,-0.042648,-9.808946
6.553592,0.039206,-0.021848,-9.828549
6.563185,0.063149,-0.007931,-9.799668
6.573733,0.065843,-0.003292,-9.780813
6.583663,0.100859,-0.034119,-9.821067
6.594782,0.080209,0.007183,-9.793981
6.603271,0.072128,0.087990,-9.779765
6.613694,0.051028,0.070033,-9.783506
6.623835,0.032323,-0.028731,-9.804905
6.633611,0.048933,-0.030976,-9.800416
6.643861,0.079760,0.026337,-9.816577
6.653663,0.088289,0.033221,-9.823760
6.665013,0.079760,-0.043097,-9.830045
6.673900,0.077515,-0.050729,-9.810442
6.683595,0.070482,0.036812,-9.803708
6.693609,0.066741,0.042798,-9.766148
6.703043,0.079011,-0.003741,-9.780513
6.713086,0.042648,-0.005088,-9.808646
6.723697,0.042499,-0.011074,-9.815530
6.738551,0.016760,-0.019304,-9.839024
6.743353,0.023195,-0.042349,-9.834684
6.753611,0.063598,-0.027085,-9.840819
6.763613,0.089786,-0.046689,-9.828100
6.773687,0.104451,-0.062401,-9.826454
6.783596,0.078114,-0.017508,-9.818822
6.793618,0.098016,0.063449,-9.752979
6.803754,0.071380,0.078263,-9.755972
6.813648,0.046988,-0.004340,-9.802960
6.823612,0.053273,-0.001796,-9.802212
6.833620,0.046838,0.033819,-9.803858
6.843589,0.042648,0.040404,-9.807748
6.853602,0.049233,-0.031425,-9.835133
6.863666,0.084399,-0.081106,-9.829447
6.874427,0.093676,-0.010176,-9.820767
6.883777,0.082453,0.031126,-9.811340
6.893642,0.064646,0.039506,-9.798471
6.903595,0.036214,0.061803,-9.801912
6.913613,0.044743,0.029480,-9.785302
6.923787,0.043097,0.004639,-9.817326
6.933667,0.048484,-0.003292,-9.793383
6.944652,0.057164,0.046539,-9.814033
6.953602,0.058810,0.003442,-9.830644
6.963012,0.087092,-0.058959,-9.786050
6.973729,0.097866,-0.052674,-9.832140
6.983607,0.107743,0.004489,-9.808946
6.993592,0.091581,0.043097,-9.792485
7.003654,0.070033,-0.021698,-9.789791
7.015523,0.042349,0.012121,-9.805204
7.023802,0.043995,-0.001197,-9.783357
7.033050,0.028881,0.010924,-9.768093
7.043580,0.008679,0.015713,-9.818074
7.053611,0.058510,0.014665,-9.811190
7.063595,0.065244,-0.029480,-9.804456
7.073856,0.092180,-0.084399,-9.833786
7.085520,0.087990,-0.059857,-9.815829
7.093744,0.100410,0.055368,-9.808497
7.103591,0.091282,0.066142,-9.794281
7.113591,0.032622,0.022895,-9.799817
7.123725,0.047886,0.027834,-9.770936
7.133614,0.039057,0.038758,-9.790240
7.143687,0.032921,0.009428,-9.801463
7.155703,0.038009,0.007632,-9.807748
7.163622,0.056864,0.018705,-9.794430
7.173588,0.095622,-0.003741,-9.809095
7.183624,0.083052,-0.060456,-9.812088
7.193833,0.081855,-0.056415,-9.830494
7.203606,0.095921,0.029779,-9.789791
7.213640,0.062102,0.048335,-9.799069
7.226453,0.015862,0.006435,-9.796675
7.233608,0.027385,-0.017957,-9.819121
7.243582,0.047287,0.015862,-9.802960
7.253595,0.064795,-0.028731,-9.830494
7.263600,0.057912,-0.005986,-9.805204
7.273587,0.093676,0.057463,-9.789492
7.283640,0.092629,0.013767,-9.823461
7.292881,0.108042,-0.039805,-9.822114
7.303615,0.076916,-0.032772,-9.796974
7.313588,0.078563,0.020052,-9.796376
7.323722,0.027085,0.043845,-9.793981
7.333607,0.012121,0.027235,-9.801763
7.343844,0.023793,-0.016161,-9.806551
7.353675,0.054769,-0.007632,-9.817326
7.363143,0.037560,-0.048634,-9.843064
7.373585,0.060755,-0.029330,-9.805504
7.383604,0.098016,0.054320,-9.796226
7.393761,0.072876,0.028582,-9.799817
7.403622,0.088140,-0.034418,-9.801912
7.413631,0.076767,-0.062700,-9.803259
7.423780,0.076916,0.012869,-9.804456
7.433364,0.046838,0.028283,-9.781860
7.443580,0.045192,0.012570,-9.774228
7.453584,0.047586,0.021549,-9.812088
7.463593,0.078563,-0.008829,-9.821067
7.473810,0.063000,-0.094275,-9.810592
7.483619,0.052824,-0.051926,-9.807299
7.493768,0.026786,0.030228,-9.807898
7.503339,0.054620,0.044594,-9.814033
7.513583,0.050430,-0.003891,-9.775575
7.523667,0.070781,-0.008530,-9.791737
7.533620,0.088439,-0.011373,-9.786050
7.543804,0.031874,-0.018107,-9.786798
7.553418,0.016012,0.005537,-9.791138
7.563659,0.039506,0.025589,-9.810592
7.573568,0.075719,0.011822,-9.808646
7.583688,0.055368,-0.063449,-9.811041
7.593605,0.064047,-0.072726,-9.827950
7.603587,0.082004,-0.000599,-9.793682
7.613637,0.065993,0.019154,-9.785751
7.623644,0.050579,0.028881,-9.796974
7.633668,0.077216,0.027085,-9.796675
7.643785,0.071529,0.011373,-9.777969
7.653596,0.029929,-0.055966,-9.790689
7.663671,0.037261,-0.039356,-9.834086
7.673592,0.054171,0.026786,-9.802212
7.683597,0.079610,0.007183,-9.782010
7.693597,0.058061,-0.051926,-9.838276
7.703665,0.081256,-0.058361,-9.807898
7.713846,0.095622,-0.001347,-9.767794
7.723721,0.047736,-0.024093,-9.790839
7.733691,0.058959,0.014066,-9.793832
7.743590,0.050729,0.078413,-9.786200
7.753594,0.052974,0.061354,-9.824658
7.762976,0.049532,-0.045192,-9.828549
7.773627,0.058810,-0.089786,-9.817176
7.784174,0.084848,-0.026188,-9.808646
7.793594,0.070781,-0.026188,-9.826454
7.803272,0.063149,0.008530,-9.804756
7.813632,0.102655,0.068536,-9.750734
7.823591,0.093527,0.042050,-9.804157
7.833607,0.083351,-0.042050,-9.818822
7.843640,0.052076,-0.064945,-9.782908
7.854490,0.038009,-0.007632,-9.799518
7.873581,0.019603,-0.013917,-9.799219
7.883585,0.049233,0.004340,-9.799967
7.893598,0.090085,0.010026,-9.817774
7.903596,0.068536,-0.032622,-9.799368
7.913380,0.062700,-0.018256,-9.790240
7.924373,0.078862,0.046240,-9.759264
7.943601,0.073175,0.000449,-9.795627
7.953585,0.054919,-0.025888,-9.817924
7.963471,0.059408,-0.029480,-9.817924
7.972934,0.033819,-0.058510,-9.795178
7.983636,0.063449,0.025739,-9.830494
7.995214,0.068836,0.021698,-9.800865
8.003615,0.049981,-0.044893,-9.812088
8.013605,0.052824,-0.044893,-9.817176
8.023583,0.052225,-0.021698,-9.804307
8.033612,0.064795,0.009876,-9.768392
8.043586,0.050579,-0.006135,-9.790689
8.053631,0.075570,0.042050,-9.790390
8.065219,0.057912,0.011822,-9.819720
8.073621,0.052375,-0.084848,-9.801912
8.083576,0.042948,-0.084099,-9.788893
8.093591,0.055667,0.030228,-9.823461
8.103583,0.070482,0.043097,-9.800566
8.113582,0.031275,0.014216,-9.772433
8.123633,0.052076,0.016461,-9.798022
8.135614,0.062700,0.014815,-9.799069
8.143593,0.058361,-0.078862,-9.825855
8.153582,0.075420,-0.082004,-9.815829
8.163581,0.110736,0.022746,-9.810442
8.173589,0.097717,0.046988,-9.792335
8.182883,0.070931,0.001347,-9.804307
8.193630,0.067788,0.007333,-9.796226
8.206187,0.071679,-0.017658,-9.797573
8.213653,0.039356,-0.030228,-9.808946
8.223583,0.016910,-0.027235,-9.817026
8.233603,0.051776,0.058810,-9.786948
8.243578,0.075719,0.027235,-9.786499
8.253587,0.075719,-0.028283,-9.814782
8.263644,0.079760,-0.048933,-9.811190
8.275722,0.093527,-0.008081,-9.793233
8.283663,0.075869,-0.030228,-9.763155
8.293598,0.055368,-0.026188,-9.811340
8.303580,0.054171,0.050280,-9.779765
8.313583,0.039655,0.027385,-9.802062
8.323588,0.014665,-0.070631,-9.806402
8.333650,0.046539,-0.090534,-9.836480
8.342939,0.068836,-0.011971,-9.793682
8.353595,0.074522,-0.029180,-9.796376
8.363577,0.068985,-0.008829,-9.809694
8.373585,0.077066,0.023943,-9.786649
8.383582,0.081106,0.005986,-9.780364
8.393577,0.025888,-0.047138,-9.790091
8.403629,0.003143,-0.045491,-9.795328
8.412906,0.028432,0.016910,-9.790240
8.423578,0.055368,0.023793,-9.792934
8.433666,0.080358,-0.036812,-9.797124
8.443580,0.109688,-0.027684,-9.839772
8.453578,0.128992,-0.056415,-9.811190
8.463577,0.095323,-0.080508,-9.790988
8.473616,0.046689,-0.011822,-9.821516
8.482835,0.057313,0.061503,-9.768392
8.493564,0.055518,0.072577,-9.750734
8.503596,0.021848,0.008679,-9.800416
8.513589,0.017658,-0.022895,-9.783207
8.523582,0.023494,0.012121,-9.788145
8.533599,0.080059,-0.009577,-9.814333
8.543646,0.079011,-0.022147,-9.777072
8.552798,0.094574,0.004340,-9.810891
8.563571,0.112831,0.000000,-9.821815
8.573585,0.091282,-0.036962,-9.805204
8.583567,0.043097,-0.033819,-9.828100
8.593580,0.063898,0.013019,-9.811938
8.603582,0.047138,0.050879,-9.778119
8.613332,0.036363,0.014815,-9.773480
8.623982,0.042499,0.009278,-9.781860
8.633638,0.064795,-0.009727,-9.815679
8.643580,0.040553,-0.054769,-9.809993
8.653587,0.064795,-0.039655,-9.798919
8.663583,0.079011,0.022596,-9.785901
8.673587,0.082304,0.030378,-9.815829
8.683611,0.066741,-0.005088,-9.830644
8.693466,0.070781,0.002095,-9.803109
8.703704,0.068387,-0.001347,-9.807898
8.712843,0.040553,-0.041152,-9.800266
8.723755,0.031874,0.000299,-9.781262
8.733603,0.062700,0.061204,-9.777969
8.743597,0.047138,0.053123,-9.798770
8.753624,0.023195,-0.023943,-9.815979
8.763703,0.053871,-0.065394,-9.825257
8.773752,0.071679,-0.052076,-9.834086
8.783594,0.039655,-0.030677,-9.809694
8.793683,0.041152,0.002843,-9.831392
8.803591,0.088738,0.041900,-9.801164
8.813600,0.078263,0.027834,-9.797273
8.823630,0.063000,-0.025140,-9.747293
8.834221,0.053423,-0.045641,-9.768392
8.843612,0.075570,0.022446,-9.826903
8.853581,0.059408,0.037860,-9.774677
8.863591,0.047586,0.007482,-9.825706
8.873580,0.089187,0.011074,-9.778718
8.883644,0.077365,-0.012720,-9.836181
8.893797,0.053273,-0.077814,-9.788893
8.904357,0.049532,-0.062700,-9.800117
8.913617,0.071978,0.007183,-9.800865
8.923614,0.080508,0.013318,-9.774378
8.933607,0.056266,0.008530,-9.779316
8.943567,0.076019,0.013917,-9.789941
8.953591,0.098914,-0.014066,-9.807000
8.963709,0.073475,-0.067788,-9.821665
8.974731,0.066441,-0.069434,-9.804007
8.983651,0.052076,0.016012,-9.792934
8.993580,0.036513,0.036812,-9.825706
9.003573,0.021100,-0.019304,-9.800865
9.013606,0.034268,-0.023494,-9.808796
9.023579,0.081555,-0.034268,-9.833637
9.033612,0.077665,-0.054171,-9.803858
9.045067,0.053273,-0.050729,-9.801014
9.053306,0.067190,0.019304,-9.823162
9.063581,0.056565,0.007482,-9.844860
9.073567,0.037860,-0.057762,-9.826603
9.083585,0.046838,-0.047586,-9.814782
9.093585,0.006135,-0.035166,-9.896487
9.103584,-0.041601,-0.089187,-9.801164
9.115313,-0.002095,-0.058660,-9.822264
9.123605,0.047287,0.056565,-9.843962
9.133648,0.127197,0.074223,-9.665438
9.143602,0.168797,0.075869,-9.684892
9.153599,0.177327,0.129591,-9.719010
9.163582,0.215935,0.141113,-9.670376
9.173493,0.142610,0.063898,-9.718711
9.185734,0.080957,0.012121,-9.789791
9.193617,0.028133,-0.049083,-9.920579
9.203589,-0.028881,-0.152337,-9.871945
9.213628,-0.032921,-0.243170,-9.960235
9.223535,-0.021998,-0.185857,-9.903670
9.233606,0.060156,-0.035765,-9.799967
9.243569,0.089935,0.090085,-9.706739
9.256159,0.129441,0.178674,-9.674716
9.263604,0.177177,0.229852,-9.677709
9.273537,0.180469,0.157125,-9.707039
9.283272,0.108790,-0.035166,-9.777221
9.293605,0.026936,-0.132584,-9.863715
9.303574,-0.014665,-0.143358,-9.903370
9.313586,-0.056266,-0.150690,-9.889603
9.326513,-0.020651,-0.109838,-9.889902
9.333564,0.059708,-0.013318,-9.825406
9.343585,0.108491,0.059408,-9.755673
9.353583,0.134379,0.045791,-9.748340
9.363580,0.160118,0.061503,-9.711827
9.373687,0.158771,0.120313,-9.708984
9.383582,0.112980,0.060306,-9.770637
9.396276,0.041451,-0.026038,-9.823910
9.403594,0.025589,-0.077964,-9.872544
9.413625,0.020501,-0.099513,-9.883019
9.423586,-0.025888,-0.181816,-9.870000
9.433628,0.016311,-0.106396,-9.848152
9.443590,0.074672,0.052525,-9.792784
9.453585,0.125999,0.076318,-9.731281
9.462865,0.114626,0.087391,-9.736518
9.473647,0.143508,0.107893,-9.711678
9.483585,0.138569,0.052076,-9.754625
9.493579,0.062700,-0.060456,-9.807748
9.503583,0.013767,-0.109988,-9.838724
9.513582,-0.011971,-0.080358,-9.857729
9.523573,-0.008081,-0.067190,-9.857430
9.533243,0.010774,-0.029031,-9.815829
9.543640,0.076767,0.050729,-9.812687
9.553579,0.134679,0.076019,-9.732927
9.563599,0.137223,0.045641,-9.776772
9.573772,0.077964,0.083950,-9.766148
9.583612,0.181218,0.032323,-9.724697
9.593579,0.082603,0.009577,-9.794430
9.603434,0.043845,-0.067938,-9.796076
9.613626,-0.015862,-0.041301,-9.842765
9.623581,-0.003891,-0.128244,-9.837078
9.633620,-0.003741,-0.098465,-9.865211
9.643578,0.060905,-0.014964,-9.793532
9.653576,0.125700,0.027834,-9.820767
9.663577,0.117170,0.044594,-9.758965
9.673394,0.105049,0.131686,-9.719309
9.683735,0.102505,0.098016,-9.788145
9.693579,0.063449,0.048484,-9.758965
9.703591,0.061354,0.045641,-9.808796
9.713572,0.043097,0.012720,-9.811340
9.723612,0.012720,-0.066741,-9.843214
9.733603,0.020651,-0.029480,-9.827651
9.743652,0.058361,-0.018107,-9.800865
9.753496,0.100859,-0.059408,-9.797872
9.763576,0.123306,-0.010475,-9.786499
9.773779,0.119415,0.012570,-9.773031
9.783663,0.073325,-0.008380,-9.758965
9.793754,0.046389,-0.034119,-9.819421
9.803590,0.070332,0.002694,-9.782459
9.814485,0.026487,-0.042050,-9.816577
9.823749,0.010475,-0.045342,-9.847553
9.833701,0.045940,0.010325,-9.791437
9.843739,0.049981,0.023793,-9.819271
9.853584,0.092030,0.020950,-9.802661
9.863579,0.122408,0.062551,-9.794430
9.873611,0.087242,0.067040,-9.778269
9.884437,0.058660,-0.000748,-9.772732
9.893771,0.073175,0.014066,-9.813884
9.903599,0.059109,-0.010325,-9.817774
9.913582,0.036663,-0.083800,-9.822264
9.923588,0.061204,-0.095771,-9.820468
9.933608,0.055667,-0.036812,-9.847703
9.943583,0.034568,-0.093527,-9.821516
9.954859,0.085596,0.000299,-9.814482
9.973571,0.085147,-0.010026,-9.794281
9.983662,0.069434,-0.006884,-9.768542
9.993771,0.076767,0.076916,-9.768692
10.003573,0.066890,0.076617,-9.785601
10.013696,0.034867,0.020202,-9.807000
10.024720,0.076468,0.020351,-9.807449
10.043579,0.056116,-0.048185,-9.820917
10.053580,0.083501,-0.003591,-9.819720
10.063573,0.111035,0.011822,-9.790390
10.073569,0.087242,-0.054320,-9.781411
10.083646,0.090235,-0.029480,-9.778718
10.095388,0.068985,-0.043845,-9.780364
10.113664,0.046240,-0.065244,-9.807150
10.123563,0.043995,-0.008081,-9.805055
10.133680,0.057164,-0.031425,-9.804007
10.143571,0.046389,-0.043247,-9.815081
10.153564,0.062850,0.043995,-9.793233
10.165393,0.047287,0.018107,-9.804007
10.173708,0.076168,0.046240,-9.794580
10.193576,0.052824,-0.030677,-9.819720
10.203583,0.052824,-0.030976,-9.829297
10.213603,0.042050,-0.030976,-9.829297
10.223564,0.037111,-0.069285,-9.812836
10.236130,0.067339,-0.043247,-9.808646
10.243679,0.113579,-0.011822,-9.781860
10.253771,0.082902,-0.070033,-9.812836
10.263569,0.083800,-0.043845,-9.800566
10.283580,0.045940,-0.008530,-9.787696
10.293583,0.029779,-0.010475,-9.844710
10.306244,0.067489,0.032921,-9.852192
10.313499,0.068985,0.010774,-9.730084
10.323569,0.059408,0.011523,-9.829147
10.333584,0.089038,0.051776,-9.825556
10.343589,0.114028,0.047437,-9.759563
10.353574,0.115524,-0.011523,-9.744000
10.363582,0.087092,0.000748,-9.811938
10.376600,0.104600,0.013917,-9.811938
10.383668,0.064346,-0.048335,-9.716765
10.393572,0.019304,-0.028582,-9.832140
10.403583,0.028582,-0.017808,-9.764053
10.413596,0.014515,-0.022746,-9.834983
10.423581,0.031425,-0.041900,-9.805803
10.433593,0.062102,-0.020651,-9.752680
10.446932,0.093377,-0.039356,-9.832888
10.453615,0.094574,-0.051776,-9.802810
10.463359,0.128843,0.014366,-9.772133
10.473569,0.070631,-0.015713,-9.790988
10.483580,0.029180,-0.061653,-9.820468
10.493591,0.029330,-0.009727,-9.794580
10.503664,0.001197,-0.032173,-9.810741
10.516723,0.020052,-0.107444,-9.810891
10.523576,0.111035,0.013767,-9.812986
10.533652,0.151738,0.034568,-9.780663
10.543570,0.113429,-0.062551,-9.796675
10.553585,0.147099,0.015713,-9.812238
10.563583,0.135128,0.031425,-9.801912
10.572864,0.076168,-0.037111,-9.775575
10.582823,0.010625,-0.023793,-9.811041
10.593605,0.011373,0.033071,-9.780364
10.603649,-0.008081,0.035765,-9.790689
10.613702,0.027385,0.021848,-9.773480
10.623569,0.102805,0.063299,-9.795029
10.633594,0.115674,0.041750,-9.799817
10.643095,0.105498,-0.010774,-9.799668
10.652784,0.093976,-0.021549,-9.816727
10.663607,0.113878,-0.011523,-9.798620
10.673586,0.072577,-0.015563,-9.807150
10.683582,0.045491,0.000599,-9.790988
10.693579,0.041900,0.038608,-9.791737
10.703593,0.050130,0.022446,-9.775425
10.713646,0.043396,0.021698,-9.786349
10.724125,0.107144,0.030976,-9.780064
10.734163,0.100111,0.007781,-9.800715
10.743577,0.108790,-0.010325,-9.811041
10.753570,0.074821,0.027983,-9.823760
10.763575,0.066292,-0.007781,-9.825556
10.773569,0.014066,0.003442,-9.823311
10.783637,0.043546,0.019304,-9.785152
10.793636,0.004489,0.063149,-9.783955
10.803626,0.008081,0.032024,-9.787247
10.813616,0.023943,0.041451,-9.779316
10.823569,0.071230,0.032323,-9.780813
10.833594,0.082004,0.015264,-9.774977
10.843566,0.103852,-0.003292,-9.810292
10.853575,0.132135,-0.013767,-9.797273
10.863709,0.092629,-0.033071,-9.825257
10.873684,0.047586,-0.030527,-9.844710
10.883646,0.067489,-0.008679,-9.827651
10.893564,0.055966,-0.011373,-9.792335
10.903559,0.044145,0.022446,-9.793233
10.913558,0.042499,0.046838,-9.787397
10.923552,0.057912,0.045043,-9.806551
10.934122,0.056565,0.028731,-9.778418
10.943668,0.085596,0.052525,-9.790240
10.953575,0.093377,0.045192,-9.791138
10.963578,0.052076,0.010475,-9.814931
10.973554,0.022446,0.010924,-9.803708
10.983657,0.019304,0.024093,-9.801763
10.993555,0.052674,-0.028283,-9.820318
11.004489,0.075121,-0.006884,-9.789492
11.013670,0.097268,0.004489,-9.790091
11.023575,0.077515,-0.029180,-9.783357
11.033669,0.081855,-0.019903,-9.800416
11.043576,0.098016,-0.000449,-9.810292
11.053564,0.085895,-0.040104,-9.783207
11.063040,0.099662,-0.106097,-9.799817
11.074373,0.041002,-0.020651,-9.858477
11.083736,0.012720,-0.030228,-9.838276
11.093585,-0.007033,-0.024691,-9.792036
11.103571,0.031575,-0.004340,-9.782459
11.113634,0.023793,-0.042948,-9.783207
11.123558,0.075270,-0.031575,-9.778119
11.133653,0.107743,0.052076,-9.789941
11.144982,0.091731,-0.003292,-9.765998
11.153684,0.080957,-0.032173,-9.824508
11.163648,0.115524,0.033370,-9.769889
11.173572,0.113878,0.040254,-9.776024
11.183567,0.065394,-0.029629,-9.802062
11.193578,0.045791,-0.010924,-9.824059
11.203592,0.063000,-0.021998,-9.808197
11.215927,0.068387,-0.083351,-9.817326
11.223210,0.068088,-0.056565,-9.818223
11.233772,0.084099,-0.040703,-9.821216
11.243563,0.065843,-0.064197,-9.812238
11.253592,0.056864,-0.035615,-9.778418
11.263601,0.077515,0.025290,-9.789193
11.273646,0.065993,0.022895,-9.760760
11.286391,0.064197,-0.018256,-9.788145
11.293563,0.057613,0.054769,-9.801763
11.303637,0.059857,0.036962,-9.803558
11.313567,0.049233,-0.012570,-9.799518
11.323553,0.076617,0.046389,-9.805803
11.333594,0.060755,0.034119,-9.795627
11.343569,0.023195,-0.029031,-9.796974
11.355913,0.072278,-0.014515,-9.808048
11.363679,0.066890,0.002394,-9.790390
11.373644,0.100410,-0.073475,-9.800715
11.383567,0.077365,-0.053423,-9.810741
11.393562,0.071829,-0.031126,-9.817625
11.403795,0.046240,-0.054320,-9.781262
11.413636,0.030976,-0.051926,-9.784703
11.426466,0.050879,-0.000748,-9.786948
11.433574,0.008679,0.007183,-9.805504
11.443196,0.026337,-0.007333,-9.787397
11.453567,0.057313,0.027684,-9.784404
11.463568,0.080807,0.020202,-9.765399
11.473566,0.059708,0.019304,-9.793532
11.483567,0.072278,0.052375,-9.792784
11.496653,0.088589,0.033221,-9.787846
11.503555,0.065843,-0.018107,-9.785452
11.513603,0.062700,0.007931,-9.792485
11.523565,0.067639,0.013169,-9.776174
11.533602,0.038758,-0.053871,-9.785152
11.543567,0.083351,-0.034119,-9.772882
11.553573,0.093078,-0.002394,-9.786050
11.566938,0.068237,-0.067639,-9.799219
11.573496,0.055518,-0.065095,-9.782758
11.583633,0.055218,-0.043845,-9.794281
11.593753,0.024990,-0.077665,-9.790240
11.603587,0.037560,-0.042798,-9.793682
11.613624,0.065544,0.012121,-9.788744
11.623560,0.065843,0.021549,-9.784254
11.636918,0.055069,0.016012,-9.786798
11.643739,0.091881,0.070781,-9.774827
11.653623,0.076019,0.042199,-9.774827
11.663640,0.067938,-0.001945,-9.783506
11.673565,0.061803,0.023045,-9.794729
11.683577,0.061204,0.005836,-9.783506
11.693571,0.043396,-0.032323,-9.793682
11.702994,0.055069,0.007632,-9.793832
11.713620,0.064346,-0.002095,-9.807599
11.723599,0.064346,-0.081705,-9.777221
11.733659,0.065993,-0.091133,-9.796675
11.743572,0.073774,-0.047138,-9.796974
11.753640,0.057912,-0.080209,-9.797124
11.763649,0.044743,-0.059109,-9.813584
11.773405,0.077365,0.016760,-9.783057
11.783611,0.054171,-0.003143,-9.768542
11.793623,0.037111,0.010325,-9.768692
11.803648,0.081555,0.033969,-9.757768
11.813715,0.049382,0.016461,-9.765399
11.823575,0.041601,-0.052076,-9.807748
11.833676,0.053273,-0.012869,-9.832739
11.843633,0.011971,-0.016012,-9.832290
11.853656,0.012271,-0.043845,-9.808048
11.863734,0.075121,0.023195,-9.804905
11.873575,0.122109,0.063898,-9.738015
11.883659,0.123156,0.025290,-9.746694
11.893561,0.114926,0.029480,-9.729485
11.903565,0.117170,0.043097,-9.722901
11.913822,0.081256,-0.024990,-9.747143
11.923568,0.083800,-0.043546,-9.787996
11.933741,0.092479,-0.041601,-9.786050
11.943566,0.024841,-0.111634,-9.781411
11.953643,0.013019,-0.090684,-9.839323
11.963650,0.024990,-0.028881,-9.818373
11.973565,0.050729,-0.000748,-9.761509
11.983982,0.079161,-0.015114,-9.778867
11.993561,0.096969,0.088589,-9.764352
12.003761,0.070033,0.075420,-9.757468
12.013686,0.069285,0.031126,-9.739511
12.023576,0.074073,0.063598,-9.765549
12.033594,0.086344,0.033670,-9.769589
12.043582,0.039506,-0.056116,-9.795178
12.054237,0.053123,-0.027534,-9.795627
12.063584,0.060156,-0.033819,-9.811340
12.073637,0.034268,-0.058211,-9.797872
12.083651,0.076767,-0.040104,-9.777969
12.093559,0.104301,-0.001048,-9.780214
12.103569,0.076019,-0.043097,-9.767195
12.113642,0.075719,-0.020651,-9.752680
12.124631,0.075420,0.004190,-9.795627
12.133599,0.062850,-0.064646,-9.780364
12.143632,0.029929,-0.071230,-9.806102
12.153596,0.060755,-0.009577,-9.793981
12.163572,0.027534,-0.007931,-9.783207
12.173571,0.050280,-0.022596,-9.769290
12.183570,0.064646,0.068536,-9.783656
12.195263,0.052375,0.049233,-9.781112
12.213657,0.074073,0.084249,-9.770787
12.223564,0.050430,0.027834,-9.772133
12.233678,0.057912,-0.025589,-9.798171
12.243550,0.072577,0.021698,-9.784703
12.253667,0.079610,0.015563,-9.769290
12.265390,0.076617,-0.008380,-9.783506
12.283607,0.072577,-0.002843,-9.786349
12.293553,0.046838,-0.068836,-9.776323
12.303582,0.060605,-0.041750,-9.764502
12.313644,0.078263,-0.007632,-9.785152
12.323573,0.060905,-0.062102,-9.780513
12.335716,0.081106,0.018705,-9.785302
12.353625,0.081256,-0.038608,-9.784554
12.363587,0.053572,-0.036962,-9.802212
12.373571,0.067040,0.020950,-9.792036
12.383570,0.069434,0.020052,-9.756271
12.393563,0.054620,0.004639,-9.780214
12.406101,0.053423,0.049382,-9.778119
12.413678,0.050280,0.002095,-9.789492
12.433704,0.073924,0.051028,-9.792634
12.443562,0.049532,-0.009278,-9.767494
12.463572,0.083950,-0.026038,-9.801613
12.475785,0.092629,-0.112382,-9.805803
12.483677,0.074821,-0.055368,-9.792934
12.493556,0.068836,-0.009278,-9.786798
12.503631,0.063898,-0.084997,-9.789791
12.513548,0.046539,-0.059408,-9.784105
12.523643,0.060755,-0.001945,-9.779017
12.533599,0.065244,-0.028133,-9.782309
12.547960,0.057912,-0.015862,-9.760461
12.553363,0.086643,0.051028,-9.767345
12.563582,0.067190,0.000150,-9.772133
12.573360,0.048784,-0.025290,-9.797573
12.583610,0.074821,0.048634,-9.779316
12.593562,0.073475,0.044743,-9.793233
12.603650,0.053871,-0.004789,-9.784554
12.616940,0.060755,0.026337,-9.803409
12.623477,0.077665,0.047886,-9.768243
12.633604,0.059558,-0.031575,-9.783506
12.643558,0.075869,0.017808,-9.779167
12.653626,0.080807,0.029629,-9.766597
12.663645,0.060456,-0.061653,-9.797273
12.673556,0.061803,-0.041152,-9.775725
12.686548,0.060605,-0.013468,-9.767644
12.693538,0.058660,-0.067489,-9.781711
12.703595,0.072278,-0.067190,-9.782608
12.713604,0.085895,-0.025439,-9.783207
12.723638,0.082154,-0.054021,-9.792485
12.733708,0.065843,-0.074073,-9.795478
12.743563,0.077515,0.008380,-9.785751
12.754204,0.066441,-0.012271,-9.798620
12.763667,0.040104,-0.010774,-9.798171
12.773570,0.034568,0.056415,-9.755822
12.783571,0.041750,0.061803,-9.779765
12.793578,0.029779,0.029031,-9.779017
12.803598,0.066441,0.084399,-9.752680
12.813452,0.114626,0.077066,-9.763903
12.823014,0.065693,-0.006435,-9.784254
12.833575,0.084698,0.009577,-9.803409
12.842895,0.068536,0.026038,-9.789043
12.853568,0.049083,-0.075719,-9.795328
12.863473,0.079760,-0.042349,-9.789342
12.873621,0.083052,-0.024242,-9.789043
12.883321,0.054620,-0.083201,-9.792784
12.893128,0.055368,-0.037411,-9.798620
12.903568,0.080658,-0.009428,-9.784105
12.913411,0.050280,-0.055817,-9.799817
12.923578,0.033221,-0.050729,-9.794281
12.933582,0.036663,-0.011373,-9.787098
12.943629,0.033370,-0.062551,-9.796525
12.953561,0.014515,-0.061653,-9.785003
12.963791,0.055069,0.015862,-9.789642
12.973579,0.044444,-0.000898,-9.764202
12.983559,0.052076,-0.006734,-9.758516
12.993560,0.086943,0.074971,-9.770338
13.003558,0.067339,0.058660,-9.748639
13.013628,0.061503,-0.005387,-9.774228
13.023563,0.093976,0.067040,-9.776623
13.034233,0.045641,0.051328,-9.780663
13.043585,0.016760,-0.034867,-9.820169
13.053565,0.033969,-0.022147,-9.795029
13.063559,0.069883,-0.009727,-9.803558
13.073556,0.044594,-0.077515,-9.794281
13.083611,0.067190,-0.045641,-9.800865
13.093557,0.087242,-0.012271,-9.795478
13.104527,0.075121,-0.074223,-9.783806
13.113576,0.070482,-0.034717,-9.790390
13.123566,0.091881,0.008380,-9.783357
13.133583,0.067639,-0.079610,-9.791886
13.142965,0.025140,-0.076168,-9.782159
13.153654,0.044594,0.000449,-9.799069
13.163569,0.016461,-0.065244,-9.799967
13.174849,0.017209,-0.049233,-9.809843
13.183619,0.042948,0.022446,-9.790839
13.192879,0.062251,0.022446,-9.781411
13.203554,0.064496,-0.007482,-9.764950
13.213578,0.081855,0.087391,-9.773181
13.223612,0.072726,0.084698,-9.776623
13.233578,0.053123,0.011971,-9.781711
13.245250,0.073774,0.032173,-9.790689
13.253584,0.060306,0.052076,-9.797124
13.263570,0.036363,-0.039206,-9.789492
13.273555,0.051926,-0.017957,-9.831991
13.283560,0.049831,-0.024691,-9.795927
13.293628,0.036663,-0.083650,-9.829297
13.303558,0.040254,-0.038009,-9.799368
13.315355,0.075869,0.025888,-9.807898
13.323609,0.054769,-0.063449,-9.798321
13.333610,0.054769,-0.058660,-9.763005
13.343555,0.073624,-0.017059,-9.767195
13.353556,0.061803,-0.049382,-9.778418
13.363597,0.069584,-0.069135,-9.789043
13.373556,0.095622,0.000599,-9.807000
13.385524,0.050579,-0.028582,-9.814632
13.393588,0.036812,-0.029330,-9.806252
13.403576,0.030677,0.057762,-9.784404
13.413596,0.051178,0.031275,-9.783656
13.423565,0.042948,0.031126,-9.778119
13.433619,0.045491,0.084997,-9.788444
13.443564,0.071230,0.057014,-9.777072
13.456001,0.056266,-0.001796,-9.786649
13.463586,0.062700,0.016311,-9.782459
13.473565,0.080358,-0.003143,-9.787397
13.483558,0.062700,-0.064496,-9.805055
13.493561,0.055069,-0.058061,-9.807599
13.503595,0.070033,-0.040254,-9.809095
13.513565,0.059259,-0.090833,-9.796525
13.526296,0.048035,-0.069434,-9.792186
13.533593,0.046539,-0.016161,-9.781561
13.543564,0.062551,-0.077365,-9.783207
13.553555,0.063299,-0.068836,-9.791587
13.563564,0.063299,-0.017658,-9.788893
13.573615,0.055518,-0.049382,-9.783506
13.583556,0.042648,-0.048484,-9.802062
13.596509,0.061952,0.010325,-9.796675
13.603545,0.053572,-0.002694,-9.774827
13.613606,0.047886,-0.016461,-9.791138
13.623552,0.066741,0.045491,-9.804606
13.633578,0.051477,0.049981,-9.787547
13.643625,0.051477,0.003442,-9.807000
13.653633,0.054171,0.052824,-9.782908
13.666988,0.071829,0.041750,-9.789642
13.673513,0.048035,-0.021998,-9.798471
13.683557,0.058211,0.015563,-9.792036
13.692779,0.073624,0.026188,-9.778867
13.702845,0.076468,-0.082004,-9.781711
13.713597,0.066741,-0.048335,-9.811489
13.723560,0.061653,-0.029629,-9.790689
13.737088,0.054919,-0.107294,-9.812088
13.743519,0.061503,-0.070482,-9.816278
13.753361,0.083650,-0.015862,-9.788444
13.763565,0.037860,-0.061503,-9.806402
13.773559,0.059558,-0.054769,-9.780214
13.783660,0.038009,0.008530,-9.773480
13.793591,0.062850,-0.025589,-9.778568
13.806662,0.059408,-0.047586,-9.796376
13.813560,0.082154,0.017808,-9.795478
13.822835,0.052076,0.015862,-9.795178
13.833568,0.040104,0.008081,-9.808048
13.843559,0.065244,0.070033,-9.795328
13.853634,0.041750,0.054171,-9.787397
13.863693,0.030976,-0.011074,-9.784554
13.872792,0.075270,0.040703,-9.774228
13.883647,0.058211,0.042050,-9.789342
13.893564,0.060755,-0.018855,-9.791288
13.903563,0.095622,0.022446,-9.795178
13.913639,0.097717,0.009727,-9.793682
13.923564,0.061354,-0.075570,-9.788145
13.933620,0.058810,-0.064945,-9.815231
13.942932,0.087990,-0.014665,-9.785302
13.953560,0.045791,-0.072278,-9.801763
13.963571,0.041002,-0.072128,-9.794281
13.973574,0.065693,-0.015563,-9.786050
13.983639,0.063299,-0.070183,-9.795029
13.993551,0.043995,-0.063598,-9.774827
14.003663,0.057613,0.024541,-9.793383
14.013595,0.065544,-0.040703,-9.787547
14.023552,0.047586,-0.041601,-9.818672
14.033662,0.046988,0.042648,-9.810143
14.043631,0.058211,0.019454,-9.780813
14.053632,0.028731,-0.010924,-9.798171
14.063564,0.056864,0.068237,-9.783207
14.073623,0.066890,0.058361,-9.775276
14.083823,0.041750,0.010625,-9.781262
14.093565,0.067938,0.044893,-9.754475
14.103591,0.069734,0.047736,-9.791587
14.113573,0.046389,-0.031724,-9.808946
14.123562,0.067040,-0.037261,-9.811340
14.133577,0.084399,-0.042648,-9.837078
14.143617,0.064945,-0.095323,-9.809993
14.154064,0.069285,-0.080807,-9.790839
14.163559,0.059558,-0.012271,-9.801463
14.173565,0.046988,-0.059408,-9.796525
14.183559,0.049083,-0.056864,-9.790988
14.193617,0.062700,-0.011223,-9.777520
14.203558,0.050280,-0.037261,-9.788744
14.213593,0.037261,-0.031126,-9.795927
14.224480,0.058660,0.010026,-9.777371
14.233689,0.040553,-0.021100,-9.796076
14.243582,0.023045,-0.014366,-9.787696
14.253547,0.065095,0.061354,-9.795328
14.263552,0.055518,0.028582,-9.795777
14.273560,0.045791,0.021100,-9.785302
14.283556,0.066741,0.044594,-9.811190
14.294442,0.085596,0.003442,-9.808048
14.303598,0.058211,-0.021998,-9.804007
14.313554,0.072128,0.008380,-9.796824
14.323567,0.078862,0.020501,-9.789941
14.333565,0.055069,-0.017808,-9.781860
14.343551,0.051926,-0.024392,-9.800266
14.353560,0.060007,-0.014964,-9.781411
14.364884,0.048784,-0.040703,-9.779167
14.383556,0.075420,-0.019753,-9.809843
14.393564,0.060306,-0.074522,-9.801314
14.403559,0.027385,-0.064346,-9.803858
14.413577,0.075121,-0.001646,-9.824658
14.423555,0.056116,-0.052525,-9.795777
14.435369,0.059259,0.023494,-9.810592
14.453556,0.046539,0.000898,-9.783207
14.463556,0.026786,0.019304,-9.795777
14.473602,0.055368,0.080358,-9.773779
14.483567,0.085895,0.059109,-9.774079
14.493547,0.070033,-0.005686,-9.791737
14.505719,0.072876,0.018107,-9.786499
14.523545,0.023045,-0.029629,-9.805055
14.533578,0.059109,-0.001496,-9.830045
14.543571,0.067339,-0.021698,-9.786649
14.553647,0.023344,-0.049233,-9.798620
14.563563,0.054620,-0.057762,-9.818074
14.576180,0.077964,-0.079610,-9.799368
14.593550,0.083201,-0.030826,-9.781711
14.603578,0.089187,-0.004639,-9.785152
14.613635,0.048035,-0.062700,-9.802810
14.633647,0.031575,-0.053722,-9.792784
14.646404,0.043696,-0.070183,-9.812387
14.653546,0.049382,0.003891,-9.833188
14.663564,0.037860,-0.013917,-9.791288
14.673568,0.035316,-0.025290,-9.806402
14.683556,0.069434,0.070332,-9.777820
14.693559,0.083501,0.058211,-9.773929
14.703522,0.064346,0.043546,-9.785003
14.716794,0.068237,0.090085,-9.768841
14.723496,0.068836,0.065693,-9.777072
14.733694,0.037860,-0.009876,-9.792784
14.743565,0.047886,0.004190,-9.799069
14.753640,0.060755,0.006135,-9.810143
14.763568,0.060306,-0.051776,-9.810592
14.773561,0.070332,-0.047437,-9.804756
14.786936,0.074971,-0.039057,-9.808646
14.793503,0.045192,-0.086194,-9.805953
14.803569,0.073026,-0.033670,-9.821067
14.813608,0.069135,0.005836,-9.785601
14.823579,0.026636,-0.076767,-9.800416
14.833571,0.037111,-0.038309,-9.784703
14.843551,0.053722,-0.015563,-9.774378
14.857408,0.043995,-0.076019,-9.805504
14.863453,0.048335,-0.050130,-9.816428
14.873555,0.074373,-0.008230,-9.784404
14.883562,0.061503,-0.034568,-9.789342
14.893559,0.053423,-0.049233,-9.803259
14.903566,0.062102,0.032323,-9.801164
14.913640,0.055966,0.004938,-9.769140
14.927195,0.027385,-0.005537,-9.818672
14.933549,0.025589,0.066441,-9.778269
14.943555,0.028881,0.026786,-9.788744
14.952833,0.047287,-0.004639,-9.778418
14.963541,0.064646,0.020651,-9.795627
14.973562,0.071978,0.043396,-9.783057
14.983556,0.077066,-0.011074,-9.782758
14.992928,0.059857,0.033071,-9.809544
15.003627,0.048784,0.007482,-9.772433
15.013580,0.051328,-0.073924,-9.796974
15.023624,0.064646,-0.056715,-9.787996
15.033615,0.069135,-0.027085,-9.797722
15.043116,0.032473,-0.098465,-9.812986
15.053591,0.039655,-0.061503,-9.831242
15.063430,0.056864,-0.052525,-9.803858
15.073656,0.043396,-0.093228,-9.812088
15.083560,0.067489,-0.065544,-9.797573
15.093360,0.077964,0.007632,-9.774228
15.103567,0.064047,-0.044444,-9.765250
15.113047,0.075420,-0.046838,-9.793682
15.123550,0.054919,0.023344,-9.775126
15.133910,0.038309,0.008679,-9.793832
15.142965,0.023344,-0.026487,-9.778269
15.153264,0.030378,0.048035,-9.819720
15.163545,0.039206,0.038159,-9.796675
15.173574,0.049532,-0.009876,-9.815530
15.183032,0.055518,0.063449,-9.801463
15.193549,0.070183,0.032921,-9.769889
15.204052,0.052076,-0.000449,-9.798022
15.212876,0.069734,0.050430,-9.796974
15.223608,0.065993,0.036363,-9.787547
15.233599,0.051028,-0.022446,-9.795478
15.243559,0.055218,0.000000,-9.799368
15.253593,0.064496,0.001496,-9.779316
15.263616,0.038608,-0.084399,-9.796824
15.276391,0.051776,-0.039206,-9.802062
15.283598,0.066142,-0.011223,-9.802511
15.293632,0.055368,-0.097866,-9.820019
15.303650,0.041301,-0.063449,-9.823760
15.313616,0.075570,-0.042349,-9.790390
15.323637,0.050130,-0.089486,-9.818223
15.333571,0.038009,-0.058211,-9.795777
15.344762,0.038608,0.018556,-9.772732
15.353606,0.039506,-0.033670,-9.757468
15.363561,0.045940,-0.018406,-9.781561
15.373681,0.065394,0.046240,-9.776623
15.383642,0.052375,-0.013767,-9.786050
15.393696,0.058361,-0.024093,-9.803708
15.403688,0.088289,0.040553,-9.798022
15.419002,0.069434,0.028432,-9.786649
15.423224,0.040703,-0.020800,-9.800865
15.433675,0.060905,0.047886,-9.823910
15.443566,0.065544,0.016311,-9.812088
15.453622,0.014964,-0.015563,-9.771834
15.463605,0.024242,0.026786,-9.790839
15.473642,0.009428,0.032173,-9.786948
15.490975,0.065544,0.024093,-9.772433
15.503590,0.084399,-0.002095,-9.774977
15.513647,0.090534,-0.067339,-9.785302
15.523713,0.085296,-0.041750,-9.818822
15.533690,0.098166,-0.023793,-9.808048
15.543671,0.079460,-0.098615,-9.776922
15.563806,0.067339,-0.039206,-9.806851
15.573146,0.008679,-0.058660,-9.806102
15.583562,0.025589,-0.064346,-9.781860
15.593645,0.046389,0.034568,-9.797124
15.603568,0.066441,-0.029480,-9.790689
15.613594,0.043546,-0.017209,-9.759114
15.636417,0.057014,-0.019304,-9.794729
15.643627,0.045791,-0.039057,-9.805653
15.653568,0.081406,0.026188,-9.795927
15.663662,0.076617,0.013468,-9.792335
15.673661,0.044145,0.003442,-9.798770
15.683603,0.051477,0.069434,-9.792186
15.706810,0.019753,-0.002245,-9.784404
15.713626,0.041900,0.030078,-9.801613
15.723615,0.017508,0.030228,-9.790689
15.733596,0.010774,-0.031425,-9.787846
15.743759,0.040254,-0.004639,-9.802361
15.753642,0.081555,-0.022596,-9.787247
15.775215,0.101308,-0.030228,-9.801164
15.783685,0.109838,-0.008380,-9.787098
15.793586,0.068985,-0.077515,-9.817625
15.803623,0.070482,-0.048634,-9.796525
15.813712,0.067639,-0.033520,-9.795178
15.823626,0.027983,-0.073624,-9.803708
15.844997,0.055069,-0.001796,-9.785152
15.853679,0.020651,-0.046838,-9.794131
15.863771,0.027235,-0.035465,-9.777820
15.873667,0.064496,0.031575,-9.791288
15.883645,0.066441,0.010625,-9.760760
15.893584,0.057014,-0.026487,-9.790091
15.919622,0.055966,0.002694,-9.772582
15.933633,0.047586,0.044743,-9.784105
15.943680,0.018406,0.045342,-9.799219
15.953658,-0.035914,-0.030228,-9.754924
15.963665,0.004489,-0.014665,-9.816577
15.987101,0.064346,-0.050579,-9.720806
16.003609,0.082004,0.014366,-9.767943
16.013621,0.115375,-0.016012,-9.854587
16.023778,0.094125,-0.032323,-9.753877
16.033663,0.092629,-0.024691,-9.783806
16.051293,0.016760,-0.096520,-9.778718
16.063567,0.047138,-0.038309,-9.807150
16.073639,0.048484,-0.095173,-9.805803
16.083698,0.037111,-0.073624,-9.787996
16.093679,0.069135,-0.000150,-9.792036
16.103703,0.064047,-0.023644,-9.767494
16.119744,0.085147,0.025290,-9.807449
16.133675,0.070332,0.010026,-9.780663
16.143627,0.031724,0.017508,-9.789492
16.153708,0.034268,0.064945,-9.805504
16.163677,0.021698,0.046988,-9.785601
16.173765,0.020202,0.042349,-9.791288
16.194883,0.059558,0.052225,-9.793832
16.203684,0.047287,0.001347,-9.800266
16.213638,0.066741,0.015862,-9.796824
16.223708,0.075719,0.019304,-9.794879
16.233688,0.072427,-0.035615,-9.801763
16.243676,0.066292,-0.007183,-9.792634
16.265267,0.058959,-0.084548,-9.811938
16.273625,0.071978,-0.074821,-9.804307
16.283663,0.063449,-0.052225,-9.818672
16.293742,0.032473,-0.062401,-9.802960
16.303807,0.049831,-0.052824,-9.806851
16.313628,0.055966,-0.001646,-9.798321
16.333377,0.051328,-0.060156,-9.794281
16.343643,0.060755,0.008530,-9.774827
16.353600,0.060905,-0.020950,-9.785452
16.363300,0.044294,-0.026786,-9.803858
16.373757,0.059857,0.037860,-9.776922
16.383709,0.060306,0.015264,-9.782459
16.406017,0.033370,0.017209,-9.785452
16.423632,0.021698,0.013917,-9.815380
16.433649,0.053572,0.051328,-9.779765
16.443722,0.065544,0.032173,-9.795627
16.453729,0.048185,-0.000449,-9.797273
16.473822,0.042050,0.045192,-9.802062
16.483620,0.048185,-0.040404,-9.803858
16.493642,0.031724,-0.016012,-9.819121
16.503726,0.035615,-0.030378,-9.794580
16.513772,0.033370,-0.069734,-9.821067
16.523714,0.057463,-0.069734,-9.823012
16.544621,0.097866,-0.053722,-9.797273
16.563583,0.100710,-0.021549,-9.773330
16.573575,0.066142,-0.049981,-9.798022
16.583376,0.059259,-0.080209,-9.827202
16.593727,0.069584,-0.037111,-9.810442
16.612129,0.009577,-0.068237,-9.817475
16.623662,0.029480,-0.024541,-9.811789
16.633682,0.047138,-0.042798,-9.795178
16.643692,0.027235,-0.016910,-9.800715
16.653748,0.052824,0.018107,-9.783207
16.663705,0.035914,0.007931,-9.764801
16.684970,0.041900,0.024392,-9.783806
16.703707,0.042349,0.005836,-9.791288
16.713721,0.063149,0.056864,-9.781411
16.723719,0.071829,0.038608,-9.821366
16.733659,0.068836,0.054620,-9.812687
16.755249,0.044893,-0.004040,-9.768243
16.763745,0.067788,0.005836,-9.813734
16.773731,0.073175,0.003442,-9.767494
16.783625,0.063000,-0.061503,-9.826005
16.793754,0.062102,-0.057014,-9.811340
16.803723,0.084698,-0.038458,-9.780962
16.833368,0.073774,-0.038159,-9.787547
16.843686,0.037710,-0.063748,-9.819720
16.853671,0.038907,-0.050280,-9.805354
16.863898,0.045043,-0.004190,-9.777520
16.873718,0.059259,-0.028582,-9.775725
16.896262,0.059558,0.013318,-9.794729
16.903673,0.050430,-0.011223,-9.814033
16.913576,0.027534,-0.007033,-9.800416
16.923665,0.051028,0.011373,-9.827651
16.933800,0.016910,0.018556,-9.811041
16.944054,-0.003591,0.003292,-9.802661
16.969165,0.060456,0.027834,-9.783955
16.973241,0.095023,-0.003741,-9.795927
16.983682,0.100859,0.027235,-9.792335
16.993664,0.103254,0.028432,-9.795029
17.003742,0.038309,-0.058061,-9.798321
17.013664,0.011672,-0.059558,-9.804905
17.032473,-0.019903,-0.078114,-9.832439
17.043604,0.032323,-0.045192,-9.776623
17.053571,0.165655,0.011074,-9.754475
17.063687,0.225961,-0.034268,-9.765250
17.073810,0.217880,-0.001646,-9.741008
17.083682,0.189598,0.024841,-9.762407
17.105300,-0.014964,-0.064795,-9.828698
17.113759,-0.036513,-0.014964,-9.805504
17.123715,-0.051477,-0.055218,-9.814482
17.133611,-0.031126,-0.038608,-9.817326
17.143713,0.047287,0.055218,-9.818972
17.153612,0.092030,0.050729,-9.773181
17.163401,0.114776,0.042349,-9.765699
17.172932,0.158472,0.116572,-9.762855
17.182855,0.139318,0.082753,-9.755523
17.193580,0.082902,0.029929,-9.783357
17.203560,0.059259,0.028881,-9.789791
17.213018,0.035615,0.015862,-9.830045
17.223558,0.008679,-0.085147,-9.842615
17.232829,0.047437,-0.086943,-9.836929
17.243529,0.073924,-0.056715,-9.817475
17.253284,0.084698,-0.071230,-9.811639
17.263132,0.090235,-0.037111,-9.791288
17.273590,0.116721,0.000000,-9.779616
17.283624,0.085147,-0.055218,-9.761808
17.293584,0.065095,-0.055817,-9.794580
17.303087,0.049382,0.007183,-9.797423
17.313581,0.041152,-0.038009,-9.801613
17.323555,0.011074,-0.066591,-9.816727
17.333587,0.040104,0.004639,-9.817176
17.343580,0.037261,-0.004639,-9.798321
17.353689,0.031126,0.001197,-9.807748
17.363629,0.074373,0.074223,-9.785003
17.372835,0.074821,0.077515,-9.774977
17.383687,0.071978,0.019903,-9.764950
17.393630,0.084249,0.068536,-9.784404
17.403623,0.089935,0.044145,-9.767045
17.413647,0.076767,0.009428,-9.817774
17.423668,0.063598,-0.008829,-9.802960
17.433685,0.073774,-0.003591,-9.811789
17.444397,0.046838,-0.079460,-9.830644
17.453597,0.070183,-0.076168,-9.813734
17.463626,0.064795,-0.029480,-9.807898
17.473633,0.066142,-0.096071,-9.805204
17.483729,0.059708,-0.044444,-9.817475
17.493698,0.081555,-0.009128,-9.787996
17.503615,0.071679,-0.047437,-9.799817
17.516705,0.055667,-0.028582,-9.801164
17.523536,0.068686,0.026786,-9.794131
17.533732,0.052076,-0.032173,-9.808796
17.543648,0.045791,-0.029180,-9.828249
17.553605,0.084399,0.009876,-9.825556
17.563741,0.068836,-0.008230,-9.790988
17.573839,0.063598,-0.009876,-9.818523
17.590920,0.061952,0.079311,-9.763304
17.603662,0.036663,0.031575,-9.762556
17.613671,0.057762,0.066741,-9.774378
17.623710,0.048185,0.052225,-9.795777
17.633828,0.040404,-0.020351,-9.801912
17.643673,0.069883,-0.025439,-9.827651
17.663174,0.088738,-0.110287,-9.834235
17.673691,0.084399,-0.079011,-9.828100
17.683687,0.079011,-0.028881,-9.803259
17.693699,0.037710,-0.056715,-9.799967
17.703717,0.032772,-0.044743,-9.771834
17.713691,0.073475,0.002095,-9.779616
17.734192,0.067788,-0.040104,-9.816128
17.743699,0.089038,-0.007632,-9.810292
17.753706,0.058361,-0.042798,-9.811041
17.763797,0.055218,-0.058660,-9.815679
17.774011,0.054769,0.024541,-9.810292
17.782963,0.037560,0.018256,-9.786649
17.805774,0.056864,0.080358,-9.799967
17.813765,0.059259,0.070781,-9.799967
17.823789,0.062850,-0.010774,-9.797872
17.833762,0.098914,0.052974,-9.798919
17.843875,0.086344,0.054171,-9.819121
17.853659,0.084848,-0.019154,-9.820767
17.874953,0.073774,-0.012121,-9.808946
17.883699,0.033520,-0.090684,-9.815829
17.893569,0.048784,-0.052076,-9.800715
17.903766,0.045491,-0.009876,-9.813435
17.913913,0.053273,-0.096969,-9.796376
17.923862,0.062700,-0.055218,-9.803858
17.947472,0.090684,-0.030527,-9.789342
17.953700,0.065394,-0.042798,-9.790539
17.963736,0.078413,0.037560,-9.814333
17.973605,0.034119,-0.013019,-9.789941
17.983693,0.031275,-0.011523,-9.798770
17.993803,0.034418,0.061503,-9.817774
18.022121,0.056266,0.056116,-9.833337
18.033709,0.093826,-0.002993,-9.790689
18.043574,0.082304,-0.018406,-9.810592
18.053774,0.111783,0.022147,-9.787098
18.063729,0.102056,0.040853,-9.790390
18.086502,0.052525,-0.011672,-9.781112
18.093741,0.070781,0.002544,-9.787397
18.103675,0.043696,-0.043995,-9.800865
18.113484,0.057762,-0.027834,-9.798321
18.123864,0.058211,-0.036513,-9.796376
18.133786,0.032473,-0.112382,-9.800416
18.159003,0.085446,-0.059408,-9.813584
18.173165,0.052525,-0.027534,-9.804905
18.182875,0.040404,0.040853,-9.779466
18.193678,0.050729,0.030826,-9.796675
18.203565,0.036962,-0.000898,-9.773330
18.225241,0.041750,0.058211,-9.818523
18.233645,0.035316,-0.007333,-9.793832
18.243709,0.071829,0.039057,-9.806851
18.253607,0.087990,0.045192,-9.798770
18.263683,0.070332,-0.030527,-9.818822
18.273841,0.078114,-0.002245,-9.822413
18.292168,0.047736,-0.093527,-9.808796
18.303703,0.051028,-0.037860,-9.823760
18.313587,0.068686,-0.018556,-9.807299
18.323623,0.044893,-0.096520,-9.779167
18.333168,0.038159,-0.073624,-9.821516
18.343592,0.051926,-0.014515,-9.828549
18.356033,0.050879,-0.048335,-9.799069
18.373568,0.082753,0.015114,-9.795478
18.383553,0.064047,-0.013618,-9.790539
18.393399,0.054919,-0.007033,-9.800416
18.403617,0.064197,0.065244,-9.801463
18.413565,0.040703,0.065843,-9.791437
18.426563,0.064945,0.056715,-9.797573
18.443702,0.081406,0.026188,-9.801763
18.453744,0.053123,-0.034119,-9.798620
18.463581,0.079760,0.006884,-9.814931
18.473634,0.093078,0.013917,-9.807898
18.483630,0.086045,-0.075121,-9.800117
18.494060,0.089187,-0.043247,-9.822413
18.503724,0.089786,-0.017957,-9.804157
18.513651,0.034568,-0.057014,-9.798022
18.523560,0.033370,-0.061803,-9.793083
18.533575,0.042648,-0.021100,-9.814333
18.543598,0.040254,-0.085745,-9.808497
18.553567,0.058061,-0.046389,-9.801314
18.563022,0.082902,-0.019154,-9.806701
18.573541,0.077665,-0.031425,-9.845458
18.583594,0.051328,-0.038758,-9.819421
18.593572,0.081256,0.030378,-9.799368
18.603546,0.067489,0.023793,-9.790091
18.613284,0.061952,0.008829,-9.782309
18.623545,0.058510,0.091731,-9.807748
18.633046,0.036214,0.087691,-9.792335
18.643539,0.026487,-0.002544,-9.794879
18.653631,0.051627,0.021399,-9.805653
18.663539,0.063898,0.019005,-9.809694
18.673554,0.058510,-0.032024,-9.811340
18.683600,0.090534,0.001496,-9.803109
18.693613,0.090534,-0.000898,-9.813884
18.703374,0.052674,-0.056415,-9.826154
18.713596,0.061204,-0.051028,-9.815081
18.723625,0.074672,-0.015713,-9.796525
18.733579,0.065394,-0.089486,-9.818373
18.743563,0.047138,-0.062551,-9.809544
18.753605,0.052225,-0.027983,-9.808796
18.763552,0.047138,-0.036663,-9.819720
18.778587,0.079610,0.004340,-9.783057
18.793691,0.056864,-0.019005,-9.800715
18.803554,0.052525,-0.033071,-9.804905
18.813657,0.072278,0.019304,-9.819570
18.823635,0.046090,0.026337,-9.807000
18.833732,0.056715,0.008530,-9.817774
18.850646,0.062401,0.051477,-9.796376
18.863635,0.046689,-0.001945,-9.781262
18.873583,0.052674,0.043546,-9.816278
18.883563,0.041002,-0.031126,-9.813584
18.893805,0.071978,-0.003891,-9.825556
18.903709,0.080209,-0.005686,-9.808796
18.921200,0.057164,-0.079011,-9.816577
18.933559,0.076318,0.004340,-9.804157
18.943548,0.060755,-0.063149,-9.796974
18.953543,0.054171,-0.067040,-9.811340
18.963634,0.084698,-0.017957,-9.814632
18.973564,0.062700,-0.080059,-9.823162
18.994250,0.063449,-0.007183,-9.808347
19.003567,0.065095,-0.041601,-9.807898
19.013631,0.062401,-0.046240,-9.799817
19.023564,0.064197,0.019304,-9.798022
19.033653,0.045192,0.006584,-9.789791
19.043565,0.021100,-0.009577,-9.814482
19.066520,0.073325,0.064795,-9.816727
19.073568,0.069883,-0.005238,-9.784703
19.083570,0.081705,0.051776,-9.796824
19.093719,0.078263,0.052076,-9.798770
19.103687,0.061653,-0.016760,-9.798770
19.113602,0.070033,0.045043,-9.814482
19.142330,0.062551,-0.080059,-9.795478
19.143197,0.058660,-0.039356,-9.802661
19.153561,0.082603,-0.021100,-9.807150
19.163575,0.051477,-0.087391,-9.810442
19.173632,0.064646,-0.074522,-9.831841
19.182865,0.060007,-0.026337,-9.789791
19.205973,0.049233,-0.069883,-9.823162
19.213559,0.061803,0.015862,-9.794729
19.223564,0.056116,-0.023644,-9.795178
19.233610,0.056715,-0.048335,-9.801314
19.243651,0.051178,0.052674,-9.808197
19.253608,0.073475,0.026038,-9.779466
19.282227,0.066292,0.046988,-9.805055
19.293511,0.046988,-0.014216,-9.808646
19.303605,0.068836,0.031575,-9.811489
19.313681,0.086194,0.043396,-9.814931
19.323618,0.050579,-0.042798,-9.812088
19.338800,0.065095,-0.021399,-9.819421
19.343280,0.086045,-0.020651,-9.812238
19.353998,0.085296,-0.079311,-9.795627
19.363599,0.063748,-0.070183,-9.819570
19.373605,0.077515,-0.022746,-9.804307
19.383685,0.051776,-0.080059,-9.798919
19.393758,0.016311,-0.081705,-9.818523
19.416955,0.054021,-0.044893,-9.783207
19.423641,0.052525,-0.057613,-9.789791
19.433618,0.074821,0.013917,-9.791886
19.443713,0.049831,-0.009577,-9.816428
19.453791,0.038458,-0.038009,-9.813584
19.463601,0.049532,0.047138,-9.810592
19.486622,0.037710,0.008829,-9.792934
19.492987,0.066292,0.056116,-9.800566
19.503591,0.069584,0.053722,-9.804905
19.513712,0.048185,-0.020800,-9.815679
19.523685,0.077814,0.048933,-9.804007
19.533685,0.081256,0.010026,-9.792485
19.556721,0.082902,-0.033520,-9.826903
19.563532,0.081256,-0.001347,-9.827202
19.573601,0.038758,-0.087691,-9.799668
19.583644,0.068387,-0.085895,-9.834385
19.593818,0.067489,-0.020651,-9.815380
19.603678,0.054320,-0.073624,-9.797872
19.624347,0.060156,0.005537,-9.794430
19.633581,0.044893,-0.025140,-9.779017
19.643153,0.057613,-0.030976,-9.789941
19.652975,0.068985,0.052225,-9.806701
19.663593,0.059408,0.022746,-9.789791
19.673616,0.042050,0.023644,-9.798321
19.682945,0.060605,0.062850,-9.805504
19.693545,0.069285,0.029031,-9.816278
19.703626,0.052974,-0.022596,-9.781262
19.713536,0.080807,0.046090,-9.812387
19.723548,0.070183,0.034418,-9.806252
19.733579,0.048933,-0.012420,-9.806102
19.742947,0.056864,0.011223,-9.800416
19.753387,0.079161,0.005387,-9.803409
19.763540,0.063149,-0.039955,-9.806252
19.773575,0.074672,-0.039506,-9.816877
19.783551,0.083800,-0.029330,-9.816428
19.793542,0.052225,-0.114178,-9.811041
19.803574,0.040104,-0.077365,-9.835432
19.813535,0.077515,-0.046689,-9.809245
19.823356,0.032173,-0.077515,-9.810442
19.833605,0.034418,-0.066591,-9.813734
19.843537,0.052525,0.026636,-9.824957
19.853535,0.061503,-0.010176,-9.810143
19.863534,0.065095,-0.045491,-9.774378
19.873578,0.056266,0.038608,-9.799368
19.883541,0.058660,0.036663,-9.787098
19.893410,0.045043,-0.016760,-9.789342
19.903541,0.057613,0.062850,-9.799219
19.913551,0.060156,0.032921,-9.804007
19.923563,0.048634,0.000449,-9.798770
19.933548,0.078563,0.041301,-9.793682
19.943592,0.059857,0.048933,-9.821067
19.953577,0.066591,-0.016610,-9.796525
19.965707,0.067339,0.026038,-9.804905
19.973594,0.084997,-0.004040,-9.817625
19.983603,0.048185,-0.057164,-9.801763
19.993660,0.060755,-0.041750,-9.813734
20.003592,0.073624,-0.023793,-9.821815
20.013657,0.057613,-0.086344,-9.817625
20.023592,0.059708,-0.112531,-9.825257
20.038164,0.051028,-0.053572,-9.811938
20.053561,0.057762,-0.064945,-9.814183
20.063555,0.060755,0.011074,-9.813435
20.073546,0.045192,-0.036812,-9.805204
20.083702,0.041152,-0.008081,-9.797872
20.093564,0.050879,0.064945,-9.803109
20.115400,0.021549,0.015413,-9.791886
20.123587,0.075719,0.069584,-9.816278
20.133566,0.072128,0.050879,-9.816128
20.143564,0.052375,0.019603,-9.813285
20.153662,0.085296,0.061054,-9.822114
20.163562,0.074821,0.044893,-9.803109
20.185355,0.074073,-0.004489,-9.817625
20.193629,0.083501,0.014515,-9.807449
20.203621,0.049532,-0.066890,-9.809394
20.213643,0.051776,-0.059558,-9.835732
20.223673,0.068686,-0.004190,-9.788444
20.233709,0.045791,-0.081555,-9.807299
20.257447,0.065993,-0.084698,-9.838575
20.273592,0.071829,-0.071829,-9.828549
20.283574,0.062551,-0.014815,-9.812387
20.293583,0.027684,-0.029330,-9.833936
20.303617,0.035615,-0.048335,-9.806701
20.325730,0.048185,0.000449,-9.837976
20.333566,0.052674,-0.005387,-9.784105
20.343541,0.050280,0.067639,-9.803259
20.353608,0.072726,0.045641,-9.807599
20.363630,0.025888,0.005986,-9.801463
20.373593,0.079460,0.072128,-9.801164
20.393078,0.067639,-0.017059,-9.797124
20.403501,0.074672,0.041451,-9.816128
20.413547,0.098615,0.031275,-9.812238
20.423576,0.077365,-0.033819,-9.803409
20.433706,0.089935,0.014964,-9.813435
20.443613,0.097118,0.007482,-9.801763
20.460474,0.054769,-0.017508,-9.816577
20.473571,0.079161,-0.015862,-9.807898
20.483574,0.046240,-0.085895,-9.821216
20.493556,0.056266,-0.052076,-9.836181
20.503650,0.074672,-0.022895,-9.828698
20.513574,0.072726,-0.087691,-9.802810
20.530250,0.074971,-0.035914,-9.816577
20.543522,0.049083,-0.078114,-9.809843
20.553551,0.045791,-0.054919,-9.813884
20.563719,0.059857,-0.004489,-9.809694
20.573695,0.038758,-0.059109,-9.804456
20.583735,0.035166,-0.035615,-9.823760
20.608661,0.051477,-0.043696,-9.818074
20.623675,0.059857,0.033071,-9.814333
20.633682,0.053273,0.007632,-9.812986
20.643714,0.038309,-0.016012,-9.793532
20.653662,0.064346,0.059558,-9.793832
20.673784,0.063598,0.017508,-9.812836
20.683652,0.077216,0.072427,-9.820318
20.693554,0.050280,0.041451,-9.815679
20.703551,0.055966,-0.006135,-9.825257
20.713718,0.064945,0.032921,-9.816128
20.723691,0.081106,0.043696,-9.814183
20.744109,0.063748,0.043995,-9.799967
20.753611,0.069434,0.052974,-9.821516
20.763570,0.072427,-0.021100,-9.788893
20.773606,0.048185,0.021249,-9.820019
20.783655,0.077066,0.006584,-9.815380
20.793549,0.067938,-0.055518,-9.832589
20.814733,0.046090,-0.081106,-9.847703
20.833580,0.056266,-0.062102,-9.818672
20.843318,0.097866,-0.002394,-9.795777
20.853682,0.076617,-0.074073,-9.801463
20.863535,0.058810,-0.050879,-9.836330
20.873242,0.068836,-0.019903,-9.812088
20.883669,0.043396,-0.099213,-9.817625
20.893567,0.047287,-0.072876,-9.834684
20.903544,0.076617,-0.031275,-9.802661
20.913532,0.036363,-0.044743,-9.820618
20.923600,0.025888,-0.053871,-9.821067
20.933548,0.074073,0.015563,-9.784703
20.943341,0.058361,-0.014815,-9.811340
20.953545,0.059558,-0.048035,-9.817924
20.963537,0.056266,0.034867,-9.827651
20.973542,0.048484,-0.013019,-9.796675
20.983567,0.034717,-0.026487,-9.805653
20.993293,0.054620,0.059857,-9.804307
21.003558,0.041002,0.053123,-9.810442
21.013664,0.055966,0.063299,-9.819869
21.033550,0.046988,0.017209,-9.800865
21.043531,0.067339,0.069285,-9.798919
21.053518,0.074672,0.061503,-9.807150
21.063588,0.066591,0.024392,-9.809843
21.073523,0.078413,0.042499,-9.790988
21.083977,0.091282,0.023494,-9.824808
21.093538,0.041451,-0.028133,-9.834235
21.103526,0.057313,0.016910,-9.839323
21.113541,0.073774,0.022147,-9.785601
21.123534,0.057164,-0.036513,-9.807000
21.133593,0.055368,0.009876,-9.826903
21.143618,0.076617,0.023494,-9.805653
21.156010,0.065095,-0.059558,-9.833637
21.163715,0.093377,-0.019304,-9.806102
21.173544,0.101757,-0.013169,-9.803708
21.183554,0.063299,-0.115225,-9.812088
21.193539,0.082004,-0.052525,-9.809544
21.203636,0.060755,-0.013169,-9.825107
21.213568,0.039655,-0.082753,-9.809394
21.232185,0.033221,-0.045491,-9.818972
21.232850,0.048035,-0.011672,-9.805504
21.243526,0.047586,-0.084698,-9.821216
21.253581,0.048784,-0.070183,-9.808946
21.263565,0.076767,-0.029480,-9.808796
21.273631,0.067639,-0.042349,-9.810741
21.283631,0.057912,-0.067489,-9.832290
21.306160,0.040254,-0.061204,-9.828249
21.313671,0.036812,-0.066441,-9.822264
21.323555,0.047287,0.009128,-9.811489
21.333563,0.041900,-0.038907,-9.818373
21.343675,0.058061,-0.056415,-9.810292
21.353660,0.055069,0.046240,-9.801763
21.382621,0.074223,0.060007,-9.831991
21.393560,0.068237,-0.008679,-9.809993
21.403609,0.060755,-0.037261,-9.820618
21.413741,0.070781,0.053273,-9.807599
21.423278,0.039655,0.031874,-9.823012
21.446169,0.066591,0.089486,-9.795029
21.453620,0.054919,0.062700,-9.810292
21.463558,0.046389,0.021100,-9.790988
21.473555,0.075121,0.077066,-9.811340
21.483648,0.089038,0.059259,-9.793832
21.493595,0.042199,0.006135,-9.809095
21.523105,0.041750,-0.030677,-9.816577
21.533609,0.079311,0.040104,-9.809993
21.543557,0.079760,0.063299,-9.812088
21.553665,0.041451,0.000748,-9.801613
21.563555,0.065394,0.028881,-9.802062
21.579408,0.079610,0.054470,-9.795627
21.582838,0.063598,-0.019304,-9.790988
21.592817,0.056565,0.030677,-9.821516
21.603642,0.049083,0.049681,-9.811789
21.613563,0.056266,-0.024541,-9.828249
21.623678,0.084249,0.045342,-9.837527
21.633650,0.078263,0.021100,-9.826304
21.653011,0.059857,0.034568,-9.796525
21.662823,0.103254,0.057014,-9.788145
21.673572,0.060156,0.008979,-9.820318
21.683566,0.090833,0.059708,-9.810292
21.693640,0.059259,0.029031,-9.808946
21.703615,0.032173,-0.006884,-9.807599
21.720685,0.072726,0.035166,-9.818074
21.733586,0.061503,-0.012121,-9.846656
21.743608,0.073475,0.051028,-9.810442
21.753607,0.081555,0.061354,-9.816128
21.763607,0.080059,0.005986,-9.784554
21.773595,0.081256,0.069135,-9.804606
21.791828,0.055966,0.008230,-9.814333
21.802828,0.074522,0.057613,-9.814931
21.813551,0.065843,0.053273,-9.837827
21.823578,0.026936,-0.036064,-9.831093
21.833666,0.065095,0.037710,-9.834534
21.843540,0.079760,0.036513,-9.822563
21.858466,0.046240,-0.013318,-9.826304
21.862886,0.082453,0.034268,-9.806701
21.873590,0.065993,0.024093,-9.802661
21.883570,0.058510,-0.018855,-9.814782
21.893547,0.087242,0.055218,-9.794430
21.903709,0.075719,0.045043,-9.820917
21.913581,0.061503,-0.008380,-9.814183
21.932775,0.054620,0.047886,-9.803858
21.943535,0.037261,-0.028283,-9.812387
21.953568,0.049382,0.020052,-9.811340
21.963559,0.069584,0.032772,-9.804756
21.972886,0.062102,-0.017658,-9.828399
21.982757,0.070183,0.030527,-9.824957
21.992900,0.098016,0.037710,-9.796824
22.003540,0.062551,-0.051477,-9.818822
22.013086,0.064197,0.011971,-9.819720
22.023605,0.071230,0.025589,-9.810442
22.032789,0.059857,-0.039955,-9.814931
22.043584,0.051926,-0.027834,-9.824059
22.053538,0.073924,-0.014216,-9.810292
22.064272,0.058660,-0.063149,-9.823760
22.073528,0.087092,-0.013468,-9.804307
22.083591,0.076318,-0.017957,-9.809843
22.093598,0.068536,-0.065394,-9.816577
22.103559,0.096370,-0.073325,-9.833637
22.113600,0.068836,-0.031575,-9.821815
22.123518,0.049382,-0.109688,-9.827202
22.134712,0.052525,-0.067339,-9.824508
22.143535,0.062102,-0.039506,-9.820169
22.153587,0.044743,-0.095323,-9.813584
22.163533,0.064945,-0.057762,-9.836031
22.173525,0.079760,0.012570,-9.815979
22.183607,0.056266,-0.070781,-9.799368
22.193538,0.051926,-0.070332,-9.814931
22.210085,0.057164,-0.093377,-9.816128
22.223584,0.059408,-0.062251,-9.836629
22.233552,0.059857,-0.029031,-9.806701
22.243552,0.045192,-0.093228,-9.820767
22.253599,0.068985,-0.098764,-9.811041
22.263549,0.092629,-0.013169,-9.817924
22.281867,0.041002,-0.052974,-9.823461
22.293546,0.055368,0.024242,-9.809694
22.302773,0.019154,-0.041451,-9.808497
22.313590,0.015413,-0.044294,-9.795627
22.323575,0.051926,0.020651,-9.804756
22.333597,0.050579,-0.026038,-9.819121
22.345186,0.020351,-0.022446,-9.817326
22.353563,0.077066,0.026337,-9.788444
22.363531,0.057164,-0.030527,-9.801912
22.373551,0.045491,-0.023943,-9.826454
22.383541,0.074821,0.026487,-9.800715
22.393587,0.050729,-0.013318,-9.803858
22.403581,0.038608,-0.010924,-9.801014
22.417523,0.042798,0.037411,-9.803858
22.433558,0.040703,0.022446,-9.814782
22.443525,0.071529,0.071080,-9.816428
22.453580,0.060755,0.052824,-9.792634
22.463600,0.074672,0.022895,-9.805653
22.473566,0.083650,0.068536,-9.824957
22.489705,0.084698,-0.005537,-9.802511
22.503521,0.059558,0.049981,-9.818523
22.513557,0.073774,0.041750,-9.816577
22.523578,0.065693,-0.003143,-9.807299
22.533533,0.076019,0.044893,-9.819271
22.543536,0.083650,0.044594,-9.817326
22.563141,0.076019,0.029330,-9.837827
22.573576,0.077814,0.017059,-9.795927
22.583549,0.060905,-0.062102,-9.817625
22.593552,0.083650,-0.021249,-9.819271
22.603655,0.080508,-0.022147,-9.822114
22.613572,0.057014,-0.089935,-9.830344
22.633444,0.060306,-0.017059,-9.804307
22.643535,0.057912,-0.072278,-9.812238
22.653532,0.063000,-0.047886,-9.828100
22.663539,0.087541,-0.016012,-9.794580
22.673636,0.053423,-0.060306,-9.806252
22.683566,0.053572,-0.047287,-9.827352
22.698010,0.048185,-0.087840,-9.840221
22.713790,0.021848,-0.078563,-9.829596
22.723611,0.056116,-0.023195,-9.816877
22.733536,0.060007,-0.054021,-9.819570
22.743695,0.051178,-0.036214,-9.809694
22.753582,0.071679,0.004489,-9.811489
22.773083,0.036812,-0.027983,-9.808646
22.783702,0.061952,0.021399,-9.822862
22.793145,0.055667,-0.018705,-9.808646
22.803603,0.038159,-0.030976,-9.802661
22.813715,0.072726,0.048634,-9.799967
22.823634,0.046240,0.018705,-9.819570
22.843174,0.079311,0.071380,-9.822264
22.853576,0.063149,0.047736,-9.806701
22.863557,0.069135,0.001646,-9.812088
22.873550,0.071529,0.044594,-9.829147
22.883624,0.058361,0.046838,-9.805055
22.893552,0.077216,0.012121,-9.796974
22.911331,0.079760,0.067788,-9.801912
22.923650,0.041451,-0.002245,-9.792485
22.933595,0.069285,0.047437,-9.811639
22.943599,0.062102,0.041601,-9.826454
22.953664,0.052974,-0.023793,-9.816278
22.963591,0.095472,0.020800,-9.837527
22.988192,0.075570,-0.043546,-9.824957
23.003673,0.084399,-0.014964,-9.810292
23.013692,0.067489,-0.084848,-9.817326
23.023772,0.074971,-0.027684,-9.810143
23.033474,0.080658,0.008230,-9.801763
23.055435,0.073026,-0.016161,-9.795927
23.073523,0.053572,-0.076468,-9.821815
23.083534,0.066890,-0.083950,-9.854437
23.093607,0.080658,-0.061653,-9.849648
23.103578,0.069434,-0.120014,-9.849050
23.117000,0.060905,-0.055518,-9.836629
23.133600,0.063449,-0.067788,-9.821815
23.143554,0.027834,-0.048484,-9.818074
23.153619,0.046090,0.017658,-9.786050
23.163641,0.006734,-0.020501,-9.804157
23.173650,0.067788,0.036513,-9.806551
23.193728,0.051627,-0.028881,-9.814183
23.203544,0.094874,0.037860,-9.837827
23.213615,0.079610,0.009278,-9.809993
23.223577,0.082453,0.000150,-9.809245
23.233632,0.080059,0.073475,-9.804606
23.252817,0.050729,0.044444,-9.817026
23.273055,0.046389,0.073624,-9.789941
23.283560,0.041002,0.027085,-9.803558
23.293543,0.089038,0.062850,-9.786050
23.303020,0.128244,0.055817,-9.816128
23.313514,0.100410,-0.026936,-9.826903
23.323610,0.111035,0.000748,-9.839323
23.335902,0.094125,-0.005088,-9.833337
23.343566,0.054171,-0.080209,-9.839922
23.352778,0.045940,-0.045791,-9.837976
23.363514,0.036513,-0.001945,-9.824059
23.372828,0.023943,-0.066441,-9.799967
23.382759,0.039356,-0.007632,-9.803558
23.393519,0.087541,0.014665,-9.800715
23.404939,0.081256,-0.059558,-9.793532
23.413064,0.093976,-0.064496,-9.814482
23.422750,0.109838,-0.047287,-9.841418
23.433652,0.079161,-0.113729,-9.832290
23.443568,0.072876,-0.095622,-9.858028
23.453508,0.069434,-0.080807,-9.851444
23.463513,0.044743,-0.081106,-9.826603
23.474496,0.007482,-0.054769,-9.832589
23.483571,0.030228,0.028582,-9.812088
23.493515,0.025439,-0.019154,-9.789043
23.503528,0.021549,0.001496,-9.808946
23.513588,0.090983,0.045791,-9.797124
23.523512,0.079909,-0.019454,-9.804307
23.533531,0.055966,-0.054171,-9.838724
23.547490,0.095622,0.000599,-9.823611
23.552776,0.075719,-0.027534,-9.814333
23.563509,0.049831,-0.034568,-9.832140
23.573523,0.070033,0.046090,-9.813435
23.582852,0.051477,0.024541,-9.803259
23.593514,0.042349,0.024691,-9.813435
23.602745,0.041900,0.095771,-9.771834
23.615231,0.052375,0.091432,-9.775575
23.623561,0.046689,0.048484,-9.798620
23.633576,0.069883,0.074672,-9.804157
23.643514,0.069135,0.029779,-9.815081
23.653601,0.076617,-0.020052,-9.818972
23.663512,0.108790,0.039506,-9.815829
23.673542,0.087840,-0.005986,-9.844112
23.687654,0.087990,-0.039655,-9.834385
23.693446,0.093676,0.020202,-9.821516
23.703557,0.086943,0.039506,-9.792634
23.713579,0.049233,-0.012420,-9.797872
23.723627,0.052076,-0.009727,-9.803109
23.733571,0.073624,0.009577,-9.798171
23.743521,0.052525,-0.061503,-9.817326
23.754532,0.073475,-0.042499,-9.827352
23.763538,0.076916,-0.036663,-9.826903
23.773530,0.070781,-0.069584,-9.807748
23.783553,0.069285,-0.066142,-9.827651
23.793609,0.094724,-0.030826,-9.813136
23.803602,0.076617,-0.071829,-9.839173
23.813634,0.067788,-0.071679,-9.828249
23.828816,0.075869,-0.025290,-9.823012
23.833309,0.057313,-0.096520,-9.814782
23.843527,0.057613,-0.076318,-9.815829
23.853571,0.084399,-0.021399,-9.807299
23.863621,0.045342,-0.063149,-9.834385
23.873581,0.039356,-0.077964,-9.843363
23.883555,0.047886,-0.000599,-9.817026
23.900638,0.054620,-0.019753,-9.834684
23.913755,0.061204,0.010475,-9.838276
23.923670,0.068536,0.003591,-9.808946
23.933656,0.029180,-0.019454,-9.846656
23.943665,0.071380,0.056565,-9.817176
23.953573,0.052225,0.018406,-9.799668
23.980399,0.079011,0.059857,-9.812986
23.993536,0.057164,0.000299,-9.832140
24.003655,0.091881,0.055966,-9.815679
24.013561,0.070332,0.030378,-9.816278
24.023633,0.062401,-0.015114,-9.814183
24.044746,0.092030,0.036363,-9.814333
24.053661,0.074821,-0.030677,-9.834834
24.063637,0.082753,0.005387,-9.808347
24.073748,0.097418,0.008230,-9.833487
24.083561,0.077066,-0.056715,-9.812238
24.093600,0.070332,-0.061503,-9.815679
24.117083,0.046988,-0.071829,-9.840969
24.123510,0.074073,-0.057463,-9.845458
24.133544,0.096220,-0.032173,-9.843812
24.143618,0.066591,-0.086194,-9.848751
24.153263,0.069135,-0.085596,-9.822862
24.162819,0.068088,-0.015413,-9.818223
24.181839,0.043546,-0.084249,-9.822713
24.193534,0.060306,0.003143,-9.811041
24.203565,0.020800,-0.054470,-9.809095
24.213680,0.040254,-0.033969,-9.821067
24.223591,0.055817,0.015413,-9.831242
24.233604,0.062102,-0.017808,-9.810891
24.251003,0.058211,0.035465,-9.828100
24.263555,0.073026,0.016610,-9.810292
24.273557,0.041152,-0.005088,-9.819121
24.283611,0.045192,0.076767,-9.807150
24.292781,0.045043,0.052824,-9.823012
24.303583,0.043247,0.034867,-9.837677
24.321064,0.082453,0.065095,-9.803259
24.333573,0.076468,0.005686,-9.810442
24.343528,0.101458,0.043097,-9.809095
24.353571,0.098016,0.067788,-9.805055
24.363530,0.086194,0.004340,-9.818523
24.373539,0.089935,0.036064,-9.842765
24.390264,0.056116,-0.037560,-9.830644
24.403601,0.078712,-0.007482,-9.837976
24.413545,0.097866,-0.010176,-9.811041
24.423690,0.055817,-0.071080,-9.823611
24.432805,0.080807,-0.040853,-9.823461
24.443510,0.090384,-0.010924,-9.808048
24.456216,0.072128,-0.067639,-9.812986
24.462809,0.058510,-0.031275,-9.817924
24.473555,0.076318,-0.009278,-9.823311
24.483530,0.063748,-0.082004,-9.812836
24.493576,0.065693,-0.070781,-9.843214
24.502919,0.099961,-0.032173,-9.834086
24.513582,0.047736,-0.099363,-9.828399
24.525240,0.037411,-0.072726,-9.833637
24.532777,0.047138,-0.005387,-9.815530
24.543579,0.057613,-0.051477,-9.814183
24.553539,0.057463,-0.031126,-9.810741
24.563568,0.075121,0.014216,-9.835881
24.573509,0.058211,-0.010176,-9.805953
24.583533,0.058361,-0.011373,-9.835582
24.595067,0.068088,0.039206,-9.812387
24.603594,0.059408,-0.003741,-9.799967
24.613523,0.039506,0.005986,-9.827202
24.623542,0.066890,0.095323,-9.815380
24.633624,0.062700,0.067489,-9.810592
24.643516,0.047736,0.012271,-9.815231
24.653559,0.076168,0.038608,-9.820169
24.667240,0.077665,-0.031275,-9.835732
24.683555,0.078114,0.020202,-9.825107
24.693538,0.101009,0.010774,-9.837976
24.703555,0.060306,-0.064047,-9.820019
24.713619,0.074821,-0.002544,-9.810143
24.723569,0.070931,-0.022746,-9.823012
24.740311,0.050280,-0.054919,-9.832140
24.753488,0.085296,-0.017359,-9.834684
24.763530,0.061503,-0.086943,-9.815380
24.773636,0.064197,-0.074373,-9.832589
24.783547,0.069135,-0.031575,-9.817774
24.793545,0.044594,-0.087242,-9.816128
24.817210,0.030527,-0.025439,-9.812986
24.833566,0.040104,-0.019304,-9.822563
24.843597,0.073026,0.019154,-9.802062
24.853552,0.053871,-0.001646,-9.799967
24.863538,0.068237,-0.025290,-9.824209
24.880152,0.041601,0.015413,-9.822114
24.893549,0.045641,0.000449,-9.831093
24.903542,0.061952,0.055218,-9.829297
24.913614,0.072278,0.058361,-9.805354
24.923252,0.057463,0.008081,-9.830793
24.933639,0.068985,0.087391,-9.828848
24.953147,0.072577,0.011672,-9.820618
24.963517,0.084548,0.072577,-9.823311
24.973571,0.090684,0.044444,-9.811639
24.983617,0.076916,-0.005238,-9.824808
24.993586,0.090684,0.015264,-9.836480
25.003593,0.100410,0.025439,-9.832439
25.020832,0.061054,-0.006584,-9.830644
25.033583,0.079610,-0.013917,-9.835283
25.043540,0.042948,-0.055667,-9.817026
25.053555,0.040254,-0.034717,-9.820917
25.063537,0.070482,-0.007333,-9.824508
25.073536,0.049382,-0.102356,-9.832739
25.091593,0.090833,-0.043995,-9.814632
25.103599,0.049681,-0.092928,-9.811789
25.113555,0.067489,-0.084399,-9.845608
25.123659,0.082004,-0.023644,-9.804007
25.133550,0.055966,-0.064197,-9.813285
25.143599,0.050729,-0.046090,-9.838724
25.155332,0.039206,-0.013767,-9.809095
25.173572,0.044444,-0.031874,-9.824359
25.183535,0.084848,0.054620,-9.790390
25.193587,0.091581,0.031425,-9.799967
25.203534,0.070931,0.005537,-9.822563
25.213488,0.084848,0.082453,-9.812088
25.223784,0.078862,0.055817,-9.828998
25.233527,0.074073,0.011971,-9.789043
25.243530,0.091881,0.033520,-9.817625
25.252830,0.065843,0.045043,-9.807748
25.263602,0.055069,0.011523,-9.821366
25.273538,0.052225,0.054171,-9.820019
25.283573,0.083501,0.038758,-9.786948
25.293867,0.083201,-0.029929,-9.818822
25.313588,0.107444,-0.001646,-9.846805
25.323549,0.074971,-0.062102,-9.844261
25.333674,0.077515,-0.019753,-9.816877
25.352732,0.064047,-0.067040,-9.829147
25.363159,0.058510,-0.053572,-9.833038
25.373500,0.055368,-0.065993,-9.842914
25.383579,0.057613,-0.082004,-9.823162
25.393511,0.083501,-0.029180,-9.849948
25.413060,0.046240,-0.101159,-9.832140
25.423505,0.052824,-0.026038,-9.829447
25.434649,0.030976,-0.045791,-9.831841
25.443539,0.034418,-0.062850,-9.834534
25.463518,0.065095,-0.035316,-9.828399
25.473575,0.056415,-0.026337,-9.811190
25.493060,0.063898,-0.009428,-9.844411
25.504984,0.056266,-0.031126,-9.819121
25.513455,0.073774,0.046988,-9.818074
25.523596,0.056864,0.037111,-9.815231
25.532903,0.045043,0.022895,-9.828249
25.543018,0.094574,0.075420,-9.799668
25.553492,0.102056,0.051776,-9.817026
25.562774,0.071679,0.001945,-9.818074
25.574696,0.088589,0.046539,-9.805354
25.583606,0.074073,0.030527,-9.807748
25.593510,0.075121,-0.007033,-9.842166
25.603522,0.056116,0.016311,-9.810592
25.613420,0.087391,0.038309,-9.833188
25.622762,0.089038,-0.051926,-9.835133
25.632765,0.077814,-0.032921,-9.838874
25.644766,0.086194,-0.013468,-9.822264
25.652758,0.070781,-0.088140,-9.830494
25.663554,0.087541,-0.052225,-9.821815
25.673500,0.079610,-0.031275,-9.799219
25.683641,0.061653,-0.113130,-9.839024
25.693598,0.062850,-0.050430,-9.848302
25.703525,0.084848,-0.038907,-9.810592
25.716238,0.046539,-0.113429,-9.811489
25.723529,0.074522,-0.067190,-9.845608
25.732749,0.047886,0.002993,-9.810741
25.743505,0.052225,-0.066441,-9.825107
25.753566,0.032173,-0.041002,-9.814333
25.763532,0.058810,0.008230,-9.827052
25.773537,0.054620,-0.033670,-9.820618
25.786553,0.041301,-0.046838,-9.836779
25.793525,0.064496,0.019154,-9.821815
25.803534,0.060156,0.024392,-9.799069
25.813552,0.039955,0.010325,-9.820318
25.822815,0.050729,0.069734,-9.808347
25.832799,0.083351,0.052974,-9.798620
25.843553,0.054620,0.013169,-9.805354
25.856922,0.097567,0.073624,-9.825556
25.862795,0.087990,0.068387,-9.812687
25.873527,0.069734,0.012271,-9.805204
25.883572,0.104451,0.032921,-9.807599
25.893579,0.101458,0.045791,-9.802212
25.903528,0.075869,-0.034418,-9.812986
25.913586,0.078413,-0.011373,-9.817026
25.926712,0.099513,-0.003143,-9.837976
25.933524,0.096520,-0.047736,-9.828549
25.943503,0.083201,-0.048634,-9.804307
25.953564,0.099812,-0.010924,-9.838575
25.963610,0.057463,-0.061803,-9.812238
25.973567,0.074672,-0.034867,-9.826154
25.983515,0.066292,-0.015264,-9.824209
25.992780,0.070631,-0.069434,-9.795627
26.003559,0.058361,-0.065244,-9.817176
26.013504,0.066591,-0.032173,-9.820917
26.022763,0.055069,-0.101757,-9.826903
26.033589,0.050430,-0.104151,-9.847104
26.043511,0.090534,-0.042199,-9.871796
26.053554,0.056116,-0.103852,-9.825706
26.062796,0.060306,-0.080807,-9.830793
26.072750,0.063449,-0.005836,-9.806851
26.083527,0.042349,-0.036663,-9.790539
26.093597,0.031425,-0.010774,-9.819421
26.102835,0.053123,0.024691,-9.807299
26.113523,0.028133,-0.015563,-9.802661
26.123517,0.027085,-0.036513,-9.833786
26.132841,0.063000,0.026188,-9.830644
26.143502,0.064047,-0.041601,-9.829447
26.152823,0.024691,-0.039805,-9.847853
26.163536,0.073026,0.013468,-9.827950
26.173617,0.065993,0.004938,-9.811489
26.182843,0.053123,-0.015114,-9.809993
26.193533,0.061952,0.045192,-9.807748
26.203199,0.065095,0.011822,-9.787996
26.213519,0.048634,-0.021549,-9.806551
26.223509,0.062551,0.031425,-9.804307
26.233524,0.042798,-0.017658,-9.798620
26.243566,0.041301,-0.042948,-9.819121
26.253587,0.060605,0.042349,-9.818972
26.263619,0.045491,0.003442,-9.812387
26.273400,0.059708,-0.036363,-9.834235
26.283647,0.063299,0.013767,-9.827052
26.293222,0.061204,0.018256,-9.820917
26.303515,0.046838,-0.004190,-9.833786
26.313575,0.081555,0.057014,-9.820169
26.323506,0.063449,0.043396,-9.814482
26.333556,0.048185,0.011822,-9.811489
26.343758,0.072577,0.052525,-9.801014
26.352738,0.065693,0.039206,-9.797573
26.363516,0.047138,-0.001496,-9.817625
26.373546,0.058810,0.059857,-9.827501
26.383591,0.055966,0.024841,-9.811789
26.393529,0.041750,-0.001048,-9.840071
26.403525,0.052674,0.035615,-9.806551
26.413910,0.050280,0.013019,-9.812088
26.423511,0.044743,-0.022746,-9.823311
26.433576,0.077964,0.042349,-9.807898
26.443535,0.071529,0.009128,-9.798321
26.453581,0.039955,0.008380,-9.801164
26.462761,0.075869,0.059558,-9.798321
26.473520,0.050579,-0.010325,-9.818373
26.484422,0.060156,-0.010625,-9.843513
26.493530,0.058810,0.041002,-9.810592
26.503512,0.046240,-0.009876,-9.812387
26.513520,0.052076,-0.024541,-9.820019
26.523669,0.049831,0.028881,-9.826603
26.533558,0.045043,-0.006734,-9.810592
26.543522,0.033969,-0.002394,-9.809544
26.554890,0.081256,0.022596,-9.804456
26.563535,0.070482,-0.001945,-9.808347
26.572753,0.055518,-0.048484,-9.817026
26.583509,0.063898,0.005387,-9.807748
26.593560,0.049681,-0.031425,-9.801164
26.603510,0.034418,-0.046240,-9.813734
26.613506,0.045043,0.035465,-9.821964
26.625525,0.051926,-0.025439,-9.802361
26.632751,0.025739,-0.039506,-9.821964
26.643516,0.060156,0.013468,-9.816877
26.652814,0.059558,-0.036363,-9.802960
26.663563,0.030527,-0.040853,-9.831242
26.673547,0.055218,0.019753,-9.815679
26.683565,0.048335,-0.050280,-9.816877
26.695265,0.051627,-0.031126,-9.817326
26.703561,0.066142,0.007033,-9.814931
26.713562,0.037710,-0.049981,-9.801463
26.723528,0.030078,-0.031275,-9.833337
26.733597,0.037860,0.002394,-9.812537
26.743542,0.037710,-0.038159,-9.811938
26.753512,0.038159,-0.028432,-9.826903
26.766623,0.069883,0.040254,-9.814033
26.772847,0.051627,-0.036214,-9.790839
26.782797,0.051178,-0.024541,-9.813136
26.793513,0.067639,0.016012,-9.830344
26.802807,0.062551,-0.043247,-9.802960
26.813441,0.041900,-0.063000,-9.833188
26.822767,0.054769,0.000748,-9.817176
26.835469,0.039955,-0.047586,-9.833038
26.843547,0.045491,-0.038608,-9.818972
26.853526,0.068985,0.016161,-9.808796
26.863513,0.039506,-0.061952,-9.816128
26.872883,0.040703,-0.051028,-9.822563
26.883323,0.076318,0.015862,-9.803558
26.893581,0.057164,-0.045940,-9.808646
26.906834,0.043696,-0.003292,-9.828100
26.923606,0.045342,-0.062401,-9.823461
26.933531,0.041002,-0.068237,-9.821964
26.943577,0.080059,0.005238,-9.800865
26.953486,0.040703,-0.054320,-9.798620
26.962786,0.034119,-0.044743,-9.809694
26.976169,0.061354,-0.040404,-9.810143
26.993525,0.034119,-0.071829,-9.815979
27.002825,0.054769,-0.025739,-9.809993
27.013574,0.045791,-0.086943,-9.838575
27.023520,0.053273,-0.097118,-9.837527
27.033514,0.055069,-0.034867,-9.815679
27.043066,0.064795,-0.071679,-9.806701
27.053504,0.060306,-0.056415,-9.829596
27.063539,0.083800,-0.004789,-9.807748
27.072870,0.061054,-0.060007,-9.809394
27.083565,0.039506,-0.073175,-9.806402
27.093552,0.078114,-0.026936,-9.812537
27.102965,0.048185,-0.096520,-9.836031
27.113515,0.052974,-0.101608,-9.830344
27.123531,0.057014,-0.046689,-9.823311
27.132753,0.044743,-0.102356,-9.824957
27.143516,0.051926,-0.058660,-9.798919
27.152908,0.066292,-0.047138,-9.807299
27.163356,0.054470,-0.082453,-9.808347
27.173517,0.068387,-0.049233,-9.811041
27.183895,0.077365,-0.038159,-9.808946
27.193616,0.064346,-0.099961,-9.827950
27.203555,0.054769,-0.060755,-9.819121
27.213506,0.091881,-0.021249,-9.826753
27.222805,0.069584,-0.092928,-9.829147
27.233619,0.064346,-0.053722,-9.821366
27.243519,0.077365,-0.033819,-9.805803
27.254374,0.076916,-0.099961,-9.810442
27.263608,0.073624,-0.038907,-9.818672
27.273527,0.089636,-0.009428,-9.830793
27.283554,0.070482,-0.086793,-9.827352
27.293628,0.063598,-0.058361,-9.827651
27.302743,0.089486,-0.039206,-9.833786
27.313673,0.048185,-0.097118,-9.823311
27.324591,0.069135,-0.063000,-9.820618
27.333591,0.089786,0.000150,-9.798321
27.343536,0.044893,-0.058211,-9.820917
27.352774,0.069734,-0.032173,-9.813435
27.363640,0.086194,-0.012869,-9.806701
27.373506,0.046838,-0.071978,-9.821216
27.383596,0.085596,-0.018556,-9.842017
27.394507,0.071679,-0.091731,-9.833487
27.413501,0.082902,-0.026188,-9.827651
27.423499,0.110885,-0.003591,-9.808197
27.433571,0.089187,-0.052525,-9.795478
27.443508,0.085147,0.022596,-9.782459
27.453423,0.086793,0.028881,-9.790539
27.464441,0.086494,0.025439,-9.814632
27.483758,0.069285,0.019603,-9.814183
27.493610,0.059109,-0.029929,-9.823311
27.503656,0.063000,0.001048,-9.824059
27.513526,0.087840,0.023943,-9.788744
27.523512,0.082004,-0.025589,-9.822264
27.535054,0.107743,0.033221,-9.792335
27.553636,0.079610,0.060605,-9.806252
27.573674,0.065993,0.022446,-9.786200
27.583512,0.077066,0.073175,-9.794430
27.593499,0.048933,0.038458,-9.806252
27.604892,0.045192,-0.022147,-9.837378
27.613593,0.080658,0.060755,-9.804157
27.623501,0.070183,0.019005,-9.808497
27.643524,0.085296,0.057912,-9.808796
27.653468,0.078413,0.084099,-9.802661
27.663493,0.071080,0.028582,-9.801314
27.675045,0.060905,0.074373,-9.801463
27.683682,0.072128,0.048484,-9.799518
27.693498,0.038458,0.030078,-9.805204
27.703494,0.051926,0.082753,-9.820618
27.713443,0.062551,0.066292,-9.814033
27.723496,0.053871,0.005686,-9.798620
27.733511,0.073175,0.059708,-9.815380
27.745690,0.059109,0.054470,-9.807449
27.752784,0.057313,0.008979,-9.812238
27.763496,0.077066,0.066741,-9.813435
27.772719,0.058061,0.044743,-9.806402
27.783373,0.038159,-0.016910,-9.798620
27.792731,0.074223,0.044594,-9.815829
27.803477,0.073475,0.000150,-9.832888
27.815427,0.035914,-0.025290,-9.824808
27.823575,0.049382,0.020501,-9.801314
27.833504,0.058660,0.000898,-9.817026
27.842851,0.032622,-0.028731,-9.805953
27.853520,0.058810,0.032473,-9.775425
27.863497,0.041451,-0.005836,-9.801763
27.873497,0.025589,-0.048335,-9.805653
27.886522,0.068836,0.003891,-9.790988
27.893494,0.053423,-0.047886,-9.807449
27.903505,0.056266,-0.057014,-9.823162
27.912773,0.079161,-0.006734,-9.826304
27.922830,0.058361,-0.046240,-9.839173
27.933272,0.058959,-0.052375,-9.811639
27.943590,0.059259,0.004040,-9.801912
27.956800,0.056565,-0.069285,-9.810592
27.962858,0.062551,-0.066441,-9.822862
27.973491,0.075270,-0.027235,-9.805504
27.982954,0.057762,-0.077665,-9.818373
27.993557,0.051776,-0.091881,-9.818672
28.002742,0.082753,-0.031575,-9.818223
28.013498,0.066441,-0.077515,-9.829297
28.027351,0.063000,-0.086045,-9.825257
28.032788,0.089038,-0.049532,-9.808048
28.043496,0.057014,-0.080508,-9.828249
28.053440,0.059558,-0.077515,-9.824059
28.062902,0.070931,-0.031126,-9.824658
28.073529,0.034568,-0.080658,-9.818972
28.083541,0.070033,-0.045342,-9.798171
28.096726,0.082154,-0.006884,-9.806252
28.103308,0.082603,-0.065993,-9.820169
28.113505,0.082453,-0.061803,-9.816877
28.122810,0.115075,-0.041900,-9.817475
28.133610,0.058810,-0.102056,-9.846207
28.143535,0.078114,-0.037261,-9.804007
28.153097,0.071380,-0.014366,-9.804456
28.162927,0.063299,-0.074073,-9.810592
28.173493,0.064795,-0.039655,-9.821067
28.183598,0.076019,0.007931,-9.805204
28.193513,0.059708,-0.043995,-9.831242
28.203639,0.094125,0.010625,-9.798770
28.213379,0.087391,0.021100,-9.798022
28.222723,0.082603,-0.020651,-9.789791
28.232757,0.083201,0.033969,-9.824508
28.243586,0.086194,0.046988,-9.810442
28.253492,0.052974,0.005686,-9.810143
28.262874,0.065394,0.026936,-9.817774
28.273634,0.093676,0.038907,-9.816428
28.283718,0.060306,-0.003143,-9.824808
28.293525,0.090085,0.047586,-9.786499
28.303693,0.080358,0.025290,-9.794131
28.313589,0.061653,-0.022446,-9.789193
28.323503,0.073475,0.044893,-9.820318
28.333523,0.065843,0.051328,-9.797273
28.343535,0.047437,-0.002843,-9.807898
28.353497,0.067339,0.065544,-9.792934
28.363494,0.049532,0.059109,-9.797423
28.373254,0.040404,0.040553,-9.816128
28.383538,0.058361,0.087092,-9.793981
28.393502,0.061503,0.046988,-9.804606
28.403507,0.054171,0.035016,-9.797423
28.413561,0.057613,0.069135,-9.797423
28.423536,0.037261,0.032622,-9.795627
28.433559,0.038458,-0.010325,-9.820767
28.445485,0.066890,0.026786,-9.807150
28.453474,0.045192,0.002544,-9.824209
28.463505,0.039506,-0.023045,-9.841568
28.473528,0.054919,0.019903,-9.818373
28.483606,0.039356,-0.015713,-9.787098
28.493512,0.043696,-0.026786,-9.824808
28.503553,0.080358,0.023793,-9.820618
28.517692,0.058211,-0.037411,-9.791587
28.522828,0.037710,-0.036663,-9.817774
28.533590,0.046988,-0.000150,-9.775276
28.543512,0.027834,-0.066591,-9.818523
28.553560,0.026038,-0.056415,-9.793682
28.563520,0.049981,-0.011672,-9.818074
28.573527,0.032473,-0.070183,-9.827202
28.594268,0.109389,-0.059259,-9.838874
28.602754,0.095173,-0.112831,-9.833487
28.613558,0.104002,-0.113429,-9.837378
28.623593,0.104301,-0.059408,-9.822264
28.633599,0.092180,-0.102805,-9.801763
28.643534,0.077365,-0.056116,-9.801763
28.665379,0.008230,-0.021399,-9.809394
28.673611,0.027684,0.014964,-9.777520
28.683630,0.054769,0.031425,-9.805953
28.693593,0.054769,-0.074223,-9.800266
28.703564,0.079610,-0.043995,-9.809843
28.713181,0.100859,-0.037710,-9.833786
28.724489,0.087391,-0.087691,-9.826154
28.733553,0.112831,-0.074223,-9.848302
28.743492,0.123306,-0.024242,-9.843363
28.753531,0.087990,-0.041750,-9.821366
28.763571,0.081855,0.043097,-9.816877
28.773500,0.057613,0.068836,-9.790390
28.783544,0.057912,0.025140,-9.773181
28.797340,0.074821,0.094874,-9.781411
28.803404,0.086045,0.102505,-9.775725
28.813496,0.082453,0.028432,-9.810292
28.823519,0.084399,0.077216,-9.804606
28.833566,0.088589,0.052375,-9.805653
28.843528,0.051627,-0.027834,-9.807449
28.853586,0.061054,0.020351,-9.841568
28.871509,0.039955,-0.012121,-9.835133
28.883497,0.037860,0.042050,-9.820468
28.893494,0.051776,0.022746,-9.785901
28.903610,0.047586,0.016910,-9.768542
28.913512,0.086793,0.053722,-9.763604
28.923516,0.070332,0.020052,-9.805204
28.941997,0.073026,0.033071,-9.794729
28.953503,0.054769,-0.019005,-9.828249
28.962916,0.025140,-0.044145,-9.832888
28.972797,0.056864,-0.012271,-9.835283
28.983492,0.043995,-0.017658,-9.810442
28.993517,0.007482,-0.048933,-9.812537
29.006676,0.079460,0.027385,-9.805653
29.013544,0.061952,-0.004340,-9.783357
29.023517,0.031126,-0.009128,-9.798770
29.033505,0.063898,0.031425,-9.763304
29.043529,0.047287,-0.049532,-9.769739
29.052720,0.033221,-0.044145,-9.826454
29.063497,0.067489,-0.011672,-9.823012
29.077902,0.055518,-0.099662,-9.829297
29.093538,0.053123,-0.049532,-9.816577
29.103514,0.050430,-0.092180,-9.824658
29.113549,0.038907,-0.076617,-9.824359
29.123525,0.091282,-0.012271,-9.800266
29.133516,0.048335,-0.077365,-9.792634
29.149236,0.060306,-0.019005,-9.811041
29.163650,0.032921,-0.106546,-9.821665
29.173567,0.042798,-0.083351,-9.834385
29.183632,0.074073,-0.035465,-9.812537
29.193526,0.046240,-0.093976,-9.828998
29.203442,0.062850,-0.049382,-9.833188
29.226794,0.063598,-0.011523,-9.792186
29.243510,0.090983,-0.024691,-9.795178
29.253637,0.085596,-0.068387,-9.819720
29.263607,0.058810,-0.032173,-9.799967
29.273576,0.073325,-0.011373,-9.811789
29.289447,0.080358,-0.038758,-9.818523
29.303391,0.084997,0.025140,-9.783506
29.313603,0.055218,-0.015114,-9.785751
29.323638,0.093676,0.039356,-9.794430
29.333521,0.088589,0.066292,-9.775725
29.343564,0.052375,0.004789,-9.791138
29.369571,0.054171,0.006734,-9.795777
29.383473,0.079011,0.051328,-9.808946
29.393669,0.036962,0.053722,-9.793981
29.403478,0.058959,-0.018406,-9.799368
29.413639,0.064795,0.056864,-9.804606
29.435614,0.093527,0.082902,-9.795029
29.452806,0.054769,0.044444,-9.803708
29.463813,0.047736,0.017059,-9.785751
29.473577,0.055966,0.062401,-9.804157
29.483619,0.038009,0.023793,-9.805204
29.504844,0.053572,-0.008380,-9.787996
29.523560,0.035914,-0.032173,-9.794729
29.533330,0.085895,0.008380,-9.796525
29.543560,0.046240,-0.022596,-9.809993
29.552761,0.042948,-0.043396,-9.806551
29.564733,0.048933,-0.061354,-9.801912
29.583485,0.045940,-0.075270,-9.788145
29.593573,0.048484,-0.029779,-9.804606
29.603586,0.060605,-0.098914,-9.785901
29.613510,0.041451,-0.071380,-9.813884
29.622783,0.061354,-0.024242,-9.804756
29.633531,0.042349,-0.091432,-9.822563
29.643506,0.067938,-0.071978,-9.809245
29.653498,0.062251,-0.016012,-9.819570
29.663420,0.070781,-0.099213,-9.810741
29.673652,0.083201,-0.059109,-9.827651
29.682735,0.088289,-0.002394,-9.785452
29.693526,0.054470,-0.057912,-9.808347
29.704602,0.082753,0.023045,-9.792485
29.723603,0.063000,0.017359,-9.806102
29.743552,0.064795,-0.012570,-9.810741
29.753535,0.092779,0.050280,-9.807898
29.763571,0.088738,0.036214,-9.794281
29.774643,0.046838,0.002544,-9.801164
29.783629,0.064795,0.056864,-9.822713
29.793489,0.048185,0.056864,-9.775425
29.803409,0.051477,0.016760,-9.797722
29.813546,0.056565,0.090085,-9.806252
29.823491,0.055518,0.059408,-9.806252
29.833493,0.029779,-0.006584,-9.798770
29.844673,0.077216,0.069135,-9.832888
29.863678,0.047287,-0.013318,-9.814333
29.873495,0.079909,0.048185,-9.820618
29.883549,0.054320,0.003591,-9.783806
29.893504,0.032173,0.006285,-9.805504
29.903440,0.059857,0.024691,-9.809245
29.920327,0.052674,-0.022297,-9.800715
29.922994,0.029629,-0.041301,-9.832290
29.933566,0.054171,0.012271,-9.789791
29.943543,0.046240,-0.040703,-9.800865
29.953586,0.047886,-0.044444,-9.830344
29.963623,0.071829,-0.005836,-9.815979
29.973512,0.067339,-0.099812,-9.794131
29.996506,0.097866,-0.024841,-9.796974
30.003563,0.051627,-0.101458,-9.804007
30.013519,0.055667,-0.062251,-9.802960
30.023608,0.083052,-0.034418,-9.819121
30.033508,0.058510,-0.080957,-9.818672
30.043636,0.070033,-0.055518,-9.810891
30.075191,0.071230,-0.028582,-9.804157
30.083510,0.091133,-0.011074,-9.814183
30.093586,0.058660,-0.063149,-9.803858
30.103354,0.075719,-0.018705,-9.787996
30.113516,0.094275,0.029330,-9.809245
30.138463,0.062551,0.045192,-9.783057
30.143302,0.061803,0.031575,-9.794729
30.152809,0.044444,0.003143,-9.807299
30.163886,0.076767,0.046389,-9.801014
30.173501,0.067190,0.034717,-9.794430
30.183600,0.043995,-0.003741,-9.801014
30.200610,0.071380,0.063449,-9.806551
30.202798,0.074522,0.055966,-9.778568
30.213481,0.067339,0.011971,-9.796226
30.223489,0.094874,0.078114,-9.802062
30.233564,0.045641,0.049083,-9.783057
30.243491,0.045342,0.005986,-9.808946
30.253554,0.067040,0.041750,-9.799668
30.270415,0.053123,0.014815,-9.797423
30.272826,0.030527,-0.016910,-9.822264
30.283449,0.054320,0.021998,-9.799668
30.293493,0.043097,-0.018705,-9.791737
30.303480,0.045791,-0.031724,-9.817176
30.313563,0.080059,0.008081,-9.795627
30.323512,0.046988,-0.038608,-9.822862
30.337735,0.041002,-0.079011,-9.811190
30.343367,0.066142,0.000898,-9.803409
30.353514,0.060156,-0.048035,-9.817625
30.363563,0.068536,-0.056415,-9.796675
30.373560,0.095173,-0.008979,-9.781411
30.383554,0.032473,-0.058660,-9.797722
30.393482,0.031126,-0.082453,-9.813884
30.403798,0.036513,-0.039206,-9.817625
30.413492,0.038907,-0.113429,-9.819720
30.423501,0.052225,-0.097268,-9.836031
30.433500,0.064047,-0.067040,-9.804307
30.443531,0.055966,-0.098764,-9.815380
30.453521,0.082603,-0.028881,-9.811938
30.463495,0.107593,-0.024093,-9.818523
30.473506,0.091133,-0.048784,-9.787098
30.483535,0.087391,-0.051028,-9.823461
30.493489,0.065544,-0.005836,-9.777820
30.503460,0.038159,-0.043247,-9.774228
30.513506,0.086194,-0.000449,-9.812687
30.523017,0.070631,0.016311,-9.802511
30.533488,0.056864,-0.006285,-9.820767
30.543829,0.077515,0.004489,-9.811639
30.553542,0.092928,0.024990,-9.808347
30.563535,0.060905,-0.012720,-9.821815
30.573527,0.081256,0.050579,-9.797423
30.583600,0.075270,0.052076,-9.782758
30.593499,0.048933,0.005387,-9.809544
30.603474,0.061952,0.078114,-9.789642
30.616294,0.062251,0.043696,-9.771235
30.623573,0.043097,0.017209,-9.808497
30.633546,0.060605,0.066292,-9.782608
30.643376,0.030378,0.017957,-9.781411
30.652834,0.025140,-0.016760,-9.815530
30.662747,0.051627,0.032173,-9.819271
30.673494,0.038159,-0.017209,-9.806402
30.686994,0.025589,-0.052674,-9.820917
30.693417,0.055518,0.021549,-9.817774
30.702750,0.051178,-0.049233,-9.790689
30.713547,0.035166,-0.073624,-9.809694
30.723641,0.075869,0.005088,-9.811789
30.733493,0.043247,-0.061054,-9.821366
30.743570,0.080508,-0.080807,-9.787996
30.754945,0.079610,-0.043097,-9.813734
30.763607,0.039506,-0.087541,-9.821815
30.773570,0.041152,-0.088140,-9.798620
30.783602,0.078862,-0.032622,-9.813285
30.793526,0.054769,-0.074373,-9.820318
30.803478,0.061354,-0.069285,-9.815380
30.813486,0.064795,-0.001197,-9.796525
30.825185,0.061653,-0.078114,-9.798620
30.833622,0.087840,-0.035316,-9.796376
30.843496,0.106246,-0.004489,-9.803558
30.853526,0.082304,-0.047287,-9.822114
30.863551,0.100111,0.030228,-9.809245
30.873534,0.086793,0.042798,-9.793083
30.883575,0.060605,-0.009128,-9.796974
30.901496,0.085596,0.027085,-9.808197
30.913477,0.050430,-0.010625,-9.807000
30.923527,0.051627,0.052824,-9.814782
30.933585,0.063449,0.051926,-9.795478
30.943507,0.042798,0.018855,-9.787996
30.953498,0.073175,0.088289,-9.804756
30.971839,0.036663,0.010475,-9.798919
30.983587,0.053423,0.032921,-9.795328
30.993503,0.067040,0.010325,-9.794580
31.003497,0.073774,-0.023943,-9.815679
31.013517,0.060605,0.026786,-9.812238
31.023330,0.030378,-0.026487,-9.805803
31.045258,0.037111,0.024093,-9.810442
31.053529,0.038608,-0.046389,-9.812537
31.063660,0.037411,-0.051328,-9.813734
31.073616,0.073475,-0.029031,-9.812238
31.083551,0.067938,-0.099363,-9.808646
31.093518,0.068686,-0.079610,-9.822862
31.117730,0.048335,-0.060456,-9.809245
31.133557,0.058211,-0.021549,-9.820468
31.143597,0.047736,-0.098166,-9.811938
31.153462,0.076318,-0.079161,-9.814782
31.163514,0.100560,-0.024392,-9.811938
31.188177,0.093377,0.023793,-9.797573
31.203487,0.081406,0.008530,-9.822114
31.213923,0.120612,0.019154,-9.797573
31.223570,0.102356,0.038458,-9.771684
31.233582,0.051028,-0.009577,-9.811041
31.258934,0.075121,-0.005387,-9.805055
31.273521,0.105199,0.055966,-9.809544
31.283578,0.052824,0.051926,-9.780064
31.293518,0.032323,0.017957,-9.811340
31.303571,0.073026,0.079610,-9.826903
31.326443,0.083650,0.084848,-9.797722
31.343492,0.016311,0.039506,-9.781711
31.352850,0.027983,-0.006584,-9.800715
31.363478,0.040104,0.032921,-9.771834
31.373543,0.040254,-0.036363,-9.801164
31.394546,0.048484,-0.010026,-9.802511
31.403551,0.034568,-0.057313,-9.821216
31.413661,0.041002,-0.090534,-9.819570
31.423568,0.089337,-0.020351,-9.789193
31.433560,0.085446,-0.076318,-9.808197
31.443544,0.058361,-0.065993,-9.791737
31.457768,0.021100,-0.068387,-9.770936
31.473538,0.076019,-0.049233,-9.820468
31.483520,0.083501,-0.032173,-9.823461
31.493596,0.031724,-0.104750,-9.825406
31.503544,0.037560,-0.092330,-9.829297
31.513960,0.077066,-0.045043,-9.845608
31.534846,0.123455,-0.036812,-9.782010
31.543743,0.107444,0.019154,-9.792036
31.553541,0.058211,0.006584,-9.772433
31.563700,0.081705,0.049233,-9.749537
31.573512,0.094874,0.057164,-9.783955
31.583503,0.069135,-0.010176,-9.829147
31.603100,0.070931,0.001048,-9.819570
31.613992,0.055817,-0.050430,-9.846207
31.622824,0.078862,0.035316,-9.806551
31.633552,0.101009,0.042199,-9.775874
31.643590,0.098166,0.063000,-9.818373
31.653440,0.111035,0.123156,-9.791138
31.667780,0.034268,0.029180,-9.798919
31.683141,0.056565,0.027834,-9.816577
31.693508,0.047138,-0.017209,-9.818972
31.703519,0.041601,-0.067040,-9.851294
31.713647,0.054171,0.014665,-9.842166
31.723580,0.033520,-0.020950,-9.792634
31.734626,0.075869,0.047586,-9.787996
31.753530,0.059109,0.000748,-9.776024
31.762746,0.088289,-0.022746,-9.787696
31.773523,0.129890,0.008829,-9.779466
31.782789,0.034268,-0.062401,-9.819121
31.793481,0.000150,-0.080358,-9.809993
31.804998,0.069135,-0.117021,-9.821815
31.822729,0.072427,-0.097118,-9.833487
31.833572,0.083950,-0.054021,-9.824808
31.843517,0.023943,-0.093377,-9.815829
31.853477,0.040703,-0.045791,-9.803259
31.863525,0.095622,0.006884,-9.757468
31.874543,0.081555,-0.004040,-9.790240
31.893521,0.069883,0.005238,-9.807748
31.903485,0.047138,-0.037710,-9.802661
31.913674,0.081855,0.005088,-9.826603
31.923565,0.101907,0.004489,-9.827202
31.933485,0.076767,0.039506,-9.799967
31.947295,0.050430,0.045491,-9.811340
31.963495,0.077515,0.114926,-9.798022
31.973496,0.101907,0.054320,-9.801014
31.983576,0.066292,0.001646,-9.798171
31.993494,0.060905,0.061354,-9.799518
32.003499,0.053871,0.048335,-9.802361
32.023173,0.091432,0.063000,-9.807299
32.033479,0.069883,0.008530,-9.798022
32.043492,0.049831,-0.021100,-9.805504
32.053557,0.070183,0.031575,-9.781711
32.063488,0.048933,-0.020651,-9.800117
32.073624,0.043247,-0.035914,-9.801164
32.096308,0.058510,-0.067190,-9.791587
32.103550,0.037710,-0.061503,-9.821665
32.113569,0.032772,-0.037261,-9.842466
32.123590,0.046988,-0.067639,-9.806551
32.133562,0.065095,-0.092479,-9.814632
32.143512,0.090983,-0.032323,-9.818972
32.166447,0.057164,-0.066292,-9.801164
32.173521,0.071080,-0.013767,-9.819271
32.183542,0.086494,-0.092928,-9.808048
32.193567,0.099812,-0.047138,-9.824359
32.203515,0.113429,-0.000299,-9.829447
32.213545,0.069285,-0.064047,-9.815231
32.244471,0.073774,-0.020950,-9.790240
32.253513,0.093078,0.054021,-9.799219
32.263940,0.076318,0.056266,-9.771385
32.273521,0.062551,0.000599,-9.806701
32.283496,0.088289,0.101159,-9.789642
32.307907,0.058361,0.007333,-9.791138
32.312832,0.077515,0.089187,-9.824209
32.323551,0.046689,0.031275,-9.808048
32.333603,0.047586,-0.014515,-9.830793
32.343514,0.060605,0.042050,-9.795478
32.353611,0.051328,-0.007183,-9.802511
32.378305,0.063149,0.023943,-9.800117
32.383314,0.036214,-0.057762,-9.773480
32.393502,0.038758,-0.071679,-9.815829
32.403468,0.071679,-0.005686,-9.814183
32.413517,0.061054,-0.092928,-9.794729
32.423549,0.048784,-0.100261,-9.787846
32.448872,0.046389,-0.124503,-9.779616
32.453214,0.083351,-0.080059,-9.804157
32.463484,0.103553,-0.046988,-9.871197
32.473612,0.070332,-0.110586,-9.805803
32.483526,0.097567,-0.017059,-9.795328
32.493511,0.080807,0.022147,-9.829596
32.517263,0.082304,0.073924,-9.781112
32.523438,0.077964,0.086045,-9.787397
32.533572,0.044893,0.000000,-9.770787
32.543565,0.061354,0.067190,-9.824957
32.553603,0.072128,0.021848,-9.816128
32.563508,0.074821,-0.014515,-9.790988
32.581790,0.063449,0.041301,-9.799069
32.593492,0.064945,-0.005537,-9.796675
32.603523,0.085296,0.086344,-9.821516
32.614054,0.072876,0.012720,-9.768392
32.623569,0.051776,-0.003591,-9.790839
32.633557,0.066890,0.041900,-9.819271
32.652156,0.022446,-0.074672,-9.809095
32.663495,0.050430,-0.018705,-9.819271
32.673524,0.070931,-0.126748,-9.816877
32.683588,0.061803,-0.076617,-9.847104
32.693516,0.093527,-0.040404,-9.827352
32.703526,0.054470,-0.097418,-9.785751
32.720425,0.085296,0.000150,-9.807150
32.733499,0.071978,-0.070781,-9.782608
32.743568,0.073924,-0.019603,-9.809095
32.753566,0.073924,0.018406,-9.812836
32.763572,0.042798,-0.044294,-9.797573
32.773559,0.064945,0.057313,-9.832888
32.785548,0.073924,0.012720,-9.797124
32.793526,0.070482,-0.023494,-9.820767
32.803626,0.082004,0.074223,-9.799967
32.813650,0.072577,0.067040,-9.791587
32.823560,0.044893,0.012570,-9.801164
32.832737,0.076318,0.086793,-9.815679
32.843570,0.068686,0.012420,-9.778718
32.854576,0.051627,-0.010774,-9.799967
32.863582,0.029929,0.027684,-9.818822
32.873482,0.018256,-0.041002,-9.810741
32.883493,0.044743,-0.058361,-9.824059
32.893533,0.060905,-0.028731,-9.833337
32.903310,0.051028,-0.114626,-9.814183
32.913500,0.088289,-0.076468,-9.817026
32.924707,0.088888,-0.026636,-9.805953
32.933558,0.073774,-0.083800,-9.807000
32.943475,0.094425,-0.038009,-9.815979
32.953571,0.093676,-0.004040,-9.804307
32.963507,0.054919,-0.057762,-9.785152
32.973503,0.055518,0.013318,-9.790240
32.983496,0.064346,0.035016,-9.795627
32.997092,0.044294,-0.012869,-9.812088
33.003451,0.092180,0.040553,-9.808197
33.013784,0.108790,0.045940,-9.798919
33.023501,0.091133,-0.017957,-9.824059
33.033530,0.093228,0.064945,-9.818223
33.043491,0.077665,0.029779,-9.793383
33.053501,0.039206,0.011074,-9.800715
33.070999,0.030826,-0.000150,-9.799368
33.083620,0.038159,-0.008230,-9.757019
33.093505,0.036513,0.039805,-9.805653
33.103349,0.052824,-0.026337,-9.800416
33.113894,0.064496,-0.066591,-9.789941
33.123433,0.077365,-0.015862,-9.818223
33.155030,0.080658,-0.033520,-9.811340
33.163557,0.052525,-0.139018,-9.720656
33.173599,0.081555,-0.053572,-9.933748
33.183571,0.090235,-0.003591,-9.801164
33.193532,0.058211,-0.058361,-9.719010
33.217974,0.043845,0.019603,-9.759414
33.233524,0.081705,0.067190,-9.846805
33.243571,0.052375,0.037261,-9.790988
33.253574,0.055069,0.000898,-9.813435
33.263508,0.078114,0.055518,-9.858028
33.288351,0.065095,0.057463,-9.823012
33.303546,0.038159,-0.007333,-9.757618
33.314153,0.044743,-0.003741,-9.819421
33.323570,0.048933,0.016161,-9.811639
33.333691,0.033670,-0.073475,-9.776024
33.360179,0.063000,-0.121660,-9.811639
33.373481,0.089187,-0.090534,-9.872244
33.383609,0.085296,-0.035465,-9.815231
33.393492,0.091881,-0.117320,-9.802960
33.403582,0.096819,-0.012720,-9.846506
33.428547,0.074971,0.082453,-9.807599
33.443464,0.059408,0.044893,-9.767943
33.452803,0.051776,-0.013618,-9.817774
33.463551,0.089187,0.054769,-9.831093
33.473541,0.087840,0.043696,-9.799668
33.495430,0.100410,0.063598,-9.836480
33.502778,0.064496,-0.003292,-9.784554
33.513952,0.057912,-0.019304,-9.805803
33.523609,0.063748,0.045791,-9.796076
33.533401,0.042798,-0.024691,-9.780962
33.543501,0.045940,-0.026038,-9.823611
33.569105,0.045791,-0.058361,-9.874938
33.583553,0.097268,-0.041451,-9.813435
33.593631,0.077515,-0.106695,-9.808946
33.603548,0.094125,-0.080059,-9.850247
33.613485,0.083950,-0.046090,-9.815979
33.633212,0.073774,-0.026936,-9.837976
33.643598,0.083800,0.000898,-9.807000
