time_tick,acc_X_value,acc_Y_value,acc_Z_value
0.007874,0.504446,-4.957222,-8.529947
0.024930,0.588246,-5.001367,-8.584567
0.034879,0.558617,-5.013488,-8.622876
0.045275,0.522254,-4.936422,-8.602973
0.054927,0.533477,-4.909336,-8.529947
0.065062,0.565501,-4.915322,-8.517078
0.075244,0.574330,-4.905595,-8.447494
0.084884,0.524947,-4.889583,-8.442556
0.095154,0.508038,-4.889284,-8.440012
0.104891,0.538715,-4.962759,-8.381801
0.114988,0.604857,-5.011393,-8.271215
0.125079,0.675339,-4.976227,-8.249067
0.135028,0.746120,-4.937918,-8.338853
0.144983,0.731006,-4.910833,-8.489394
0.154915,0.732053,-4.802192,-8.594443
0.165960,0.783979,-4.665568,-8.648764
0.174985,0.795053,-4.677839,-8.677196
0.184984,0.819445,-4.872823,-8.596089
0.195230,0.857304,-5.040423,-8.402751
0.205096,0.848775,-5.152207,-8.164968
0.215109,0.848924,-5.161784,-8.054083
0.224976,0.854312,-5.110157,-8.094037
0.234947,0.913121,-5.047008,-8.182776
0.244887,1.027897,-4.972635,-8.310421
0.254919,1.112745,-4.883149,-8.380454
0.264935,1.263435,-4.866239,-8.516779
0.275115,1.455427,-4.917716,-8.662232
0.285111,1.524712,-4.985654,-8.707723
0.296504,1.504061,-4.909935,-8.583819
0.315137,1.438518,-4.887788,-8.531593
0.325181,1.413527,-4.974580,-8.438964
0.334264,1.413378,-5.144276,-8.388834
0.345170,1.476527,-5.343151,-8.248619
0.365100,1.478023,-5.248427,-8.168410
0.374784,1.391829,-5.184081,-8.180381
0.384979,1.439416,-5.119584,-8.246972
0.395038,1.548804,-5.040274,-8.443603
0.404937,1.538479,-5.066761,-8.456622
0.415014,1.461413,-5.153853,-8.369380
0.424968,1.449292,-5.222688,-8.207167
0.434914,1.434178,-5.281349,-8.064857
0.444908,1.411133,-5.263092,-7.989287
0.455041,1.460216,-5.182135,-7.984798
0.464959,1.512441,-5.125570,-7.993777
0.475272,1.517828,-5.132903,-8.019366
0.485070,1.574992,-5.188720,-8.053035
0.494926,1.655051,-5.213860,-8.055130
0.504487,1.655051,-5.264738,-8.065755
0.514977,1.714759,-5.193358,-8.081467
0.525013,1.674056,-5.071250,-8.111695
0.534850,1.648317,-5.073046,-8.091493
0.544981,1.660887,-5.186475,-8.113641
0.555130,1.709072,-5.346144,-8.137883
0.564956,1.735409,-5.447751,-8.019964
0.575318,1.771324,-5.433685,-7.794003
0.584786,1.772521,-5.280600,-7.214436
0.595299,1.928000,-5.183482,-6.931012
0.604994,2.126127,-5.166722,-6.804863
0.614982,2.304202,-5.480823,-6.592520
0.625211,2.579994,-5.800161,-5.969257
0.634859,2.964427,-6.057247,-5.383704
0.645048,3.306511,-6.340222,-5.261596
0.654607,3.793748,-6.348303,-5.318759
0.665134,4.165910,-6.023129,-5.419170
0.675432,4.389925,-5.796270,-5.410341
0.684977,4.474623,-5.607570,-5.246482
0.695442,4.697142,-5.199793,-5.177646
0.705091,5.078582,-4.928191,-4.923702
0.715100,5.372481,-5.010345,-4.411324
0.734695,6.002628,-5.378766,-2.889306
0.744955,6.677068,-5.239897,-2.345952
0.754924,5.862262,-5.358714,-2.386805
0.765135,9.412691,-5.617896,-2.253473
0.775039,10.972270,-6.178308,-3.674782
0.784913,13.835837,-7.900998,-5.829191
0.800360,12.457476,-8.298150,-4.028987
0.804694,10.653530,-6.994162,-1.621830
0.814915,8.935031,-6.290391,-0.032921
0.825286,7.817497,-5.825151,0.738787
0.834935,7.813008,-5.335819,0.899504
0.844415,8.063959,-5.398070,1.586664
0.854912,8.346036,-5.526464,2.164585
0.865015,8.677495,-5.495039,2.110714
0.874919,8.868140,-5.356170,1.674205
0.884921,8.990249,-5.235558,1.097781
0.895404,9.281454,-4.939115,0.737889
0.905103,9.374083,-4.878809,0.724122
0.914980,9.420023,-4.999421,1.019817
0.925049,8.942064,-4.872225,2.112958
0.934515,7.999164,-4.629803,3.915857
0.945013,6.897792,-4.389177,5.624629
0.954916,6.109772,-4.066098,7.039952
0.965011,5.886056,-3.840437,7.637477
0.975100,5.883212,-3.901491,7.290904
0.984965,6.018639,-3.878147,6.524133
0.995226,6.182498,-3.706057,6.149727
1.004371,6.412948,-3.564345,5.706634
1.014635,6.504081,-3.521398,4.856363
1.025004,6.403970,-3.519452,4.406386
1.035014,6.140299,-3.504039,4.481806
1.045223,6.163943,-3.271494,4.741586
1.054973,6.479989,-2.994804,5.408695
1.065023,6.650731,-2.998545,6.274080
1.074494,6.658064,-2.739214,6.656717
1.084982,6.233527,-2.091709,7.007181
1.095154,5.635254,-1.802449,7.529883
1.104921,5.177796,-1.742891,7.739533
1.115114,5.034887,-1.749176,8.138781
1.125062,4.852621,-1.951643,8.629011
1.134804,4.592692,-2.093804,8.638887
1.144679,4.335904,-1.853478,8.618087
1.154908,3.939500,-1.372974,8.612101
1.164972,3.735687,-1.038672,8.496876
1.175017,3.464982,-0.815704,8.731666
1.185121,3.130231,-0.725619,9.192866
1.195437,2.866111,-0.704070,9.597350
1.204978,2.690580,-0.797597,9.993306
1.214367,2.625486,-0.946043,10.231388
1.224962,2.606481,-1.025802,10.306808
1.234801,2.638804,-1.050793,10.131127
1.244920,2.656013,-0.662320,9.937339
1.255014,2.362563,-0.174484,9.930755
1.264982,2.084676,0.461948,10.028771
1.274906,2.013745,0.830369,9.995850
1.284547,2.033348,0.788768,9.865211
1.295296,2.047864,0.522553,9.754924
1.304925,2.275920,0.115524,9.652868
1.314992,2.632369,-0.216833,9.537643
1.325149,2.771238,-0.568344,9.388449
1.334798,2.749240,-0.957865,9.184037
1.344921,2.801615,-0.836803,9.015988
1.354548,2.615908,-0.434413,8.961667
1.365241,2.304501,-0.209201,9.212469
1.375406,2.144832,0.038907,9.556049
1.384929,1.825195,0.183013,9.956045
1.395457,1.482064,0.237783,10.254433
1.404966,1.276903,0.221472,10.270893
1.414981,1.008893,0.442494,10.156416
1.424206,1.090747,0.826777,10.425325
1.434795,1.442259,0.660674,10.068576
1.444992,1.651160,0.178075,10.672984
1.454913,1.217495,-1.794818,12.140083
1.465141,2.174611,0.824682,8.440910
1.474968,1.514836,0.260379,10.917201
1.484977,0.958014,0.360640,9.996747
1.494655,0.799542,0.745372,9.900527
1.504974,0.813609,0.700030,9.767644
1.514916,1.107059,0.175232,9.864613
1.525065,1.362200,-0.155030,9.674865
1.534985,1.483111,-0.176279,9.465814
1.544951,1.359357,-0.062251,9.303901
1.554920,1.192804,-0.201419,9.178949
1.564529,1.161529,-0.434114,8.831478
1.575320,1.047650,-0.301082,8.788081
1.584921,1.443306,-0.134080,8.712661
1.594988,2.531061,1.153298,8.524859
1.605186,-2.263948,0.159819,11.361042
1.614981,-0.403737,-0.200073,14.348215
1.624964,0.303775,0.841742,8.563916
1.647824,-0.404485,0.919706,9.642393
1.654964,0.079909,0.402240,10.152975
1.664920,0.083650,0.124802,9.632367
1.675005,-0.007781,-0.329364,9.757319
1.684834,0.024242,-0.110885,9.834834
1.695266,0.119565,-0.050130,9.654514
1.704378,0.190196,-0.130489,9.780813
1.715000,0.293749,-0.240327,9.766896
1.725013,0.395806,-0.275044,9.852492
1.734991,0.363333,-0.291056,9.784404
1.745479,0.201719,-0.209799,9.761808
1.754972,-0.011672,-0.037261,9.934197
1.765076,-0.220424,0.223716,9.729485
1.777035,-0.266065,0.544551,9.738015
1.784879,-0.260828,0.602911,9.778867
1.794926,-0.319937,0.471675,9.750136
1.804970,-0.302578,0.308264,9.710929
1.815100,-0.193638,0.086494,9.783207
1.825088,-0.113579,0.012420,9.809993
1.834974,-0.068985,0.035765,9.798022
1.846934,-0.017808,0.021698,9.846805
1.854724,-0.042798,-0.006135,9.839323
1.864912,-0.115225,-0.069584,9.800416
1.875034,-0.078413,-0.097717,9.772882
1.884938,-0.059408,-0.006135,9.741307
1.894969,-0.060156,0.077964,9.760312
1.904974,-0.085745,0.008979,9.814333
1.917593,-0.079311,0.051477,9.736818
1.925008,-0.063598,-0.029929,9.808646
1.934994,-0.027983,-0.003292,9.811938
1.945304,0.020501,-0.006135,9.779167
1.955088,0.068985,0.015114,9.797573
1.965106,0.075869,0.034119,9.791138
1.974968,0.038309,0.029330,9.751333
1.987900,-0.033969,0.057313,9.777072
2.004911,-0.083351,0.055368,9.745497
2.014927,-0.087541,0.030677,9.785152
2.025128,-0.074821,0.013169,9.779017
2.034948,-0.036064,-0.002993,9.782309
2.045481,0.007632,0.006135,9.821516
2.058481,0.069584,0.022147,9.801613
2.074899,0.055218,0.032622,9.787397
2.084829,0.015563,0.047287,9.771984
2.095240,-0.018855,0.059558,9.763304
2.104968,-0.054470,0.053871,9.756271
2.114980,-0.100710,0.040254,9.738913
2.125557,-0.049532,0.006135,9.757169
2.135113,-0.043247,0.020052,9.834385
2.145100,-0.011971,-0.006135,9.797124
2.154969,0.023045,0.014964,9.786948
2.165119,0.065993,0.012869,9.810891
2.174980,0.058810,0.035765,9.797423
2.184853,0.046240,0.054919,9.777520
2.195638,-0.032921,0.051477,9.776922
2.204926,-0.063898,0.057014,9.747592
2.215080,-0.078563,0.047586,9.758516
2.224978,-0.084099,0.008829,9.784404
2.235116,-0.055966,0.026786,9.798321
2.245825,-0.013169,-0.001496,9.811041
2.254963,0.041750,0.011223,9.801763
2.268770,0.069883,0.041152,9.821366
2.284785,0.038907,0.051477,9.796376
2.294909,0.013767,0.054021,9.755822
2.305002,-0.039356,0.043845,9.758665
2.314985,-0.061653,0.031724,9.779765
2.325070,-0.092479,0.000150,9.764352
2.339206,-0.030378,-0.002095,9.806252
2.345717,0.006734,0.022596,9.772433
2.364919,0.057313,0.020651,9.791886
2.375194,0.085296,0.010026,9.808946
2.384840,0.063449,0.042948,9.786050
2.395115,0.007781,0.046988,9.774528
2.408725,-0.056565,0.034268,9.765250
2.424907,-0.093527,0.019903,9.775575
2.434924,-0.082304,0.030826,9.777221
2.445130,-0.002095,0.006285,9.795927
2.454981,0.027235,0.027235,9.793233
2.465047,0.070332,0.001646,9.796525
2.479198,0.066441,0.022147,9.799368
2.494990,-0.009278,0.045641,9.771684
2.504914,-0.041152,0.045043,9.785601
2.515222,-0.082603,0.028881,9.734274
2.524951,-0.087391,0.048035,9.758965
2.535142,-0.059558,0.012720,9.797722
2.546423,-0.023344,0.033071,9.781711
2.554877,0.024541,0.035765,9.794879
2.564912,0.058810,0.008230,9.784853
2.574916,0.058361,0.033520,9.790240
2.584950,0.049532,0.024541,9.761209
2.595008,0.002544,0.012570,9.790091
2.604912,-0.048634,0.021698,9.779915
2.614695,-0.076916,0.023045,9.751632
2.624907,-0.078712,0.045491,9.758665
2.634909,-0.059259,0.024691,9.810292
2.646194,-0.031275,0.031575,9.787547
2.655003,0.010475,0.013468,9.769440
2.664917,0.047437,0.034867,9.796675
2.674992,0.075570,0.040104,9.816128
2.690003,0.056864,0.017359,9.777969
2.694625,0.004938,0.039057,9.790091
2.704903,-0.036962,0.028283,9.775276
2.714933,-0.060007,0.021998,9.771235
2.725014,-0.078712,0.044145,9.767195
2.734973,-0.057164,0.030228,9.762107
2.745452,-0.046988,0.040404,9.769889
2.757349,-0.017957,0.038458,9.790091
2.764965,0.034268,0.033819,9.774228
2.774991,0.056266,0.032772,9.798919
2.784833,0.068387,0.030677,9.799368
2.795111,0.024841,0.041601,9.769739
2.804993,0.008230,0.006584,9.780364
2.814975,-0.043546,0.010026,9.797423
2.831211,-0.051028,0.027834,9.759713
2.834464,-0.067190,0.038608,9.773779
2.845360,-0.044145,0.044145,9.759863
2.854981,-0.003891,0.039805,9.792036
2.865113,0.015264,0.038309,9.788295
2.874965,0.083052,0.000748,9.796974
2.884833,0.062700,0.019005,9.805504
2.900618,0.032772,0.019005,9.801314
2.904546,0.008679,0.027235,9.800416
2.915027,-0.034418,0.020800,9.784254
2.924989,-0.047886,0.029929,9.773480
2.935055,-0.069135,0.011971,9.784703
2.945905,-0.058810,0.043696,9.789791
2.954946,-0.039506,0.054021,9.802661
2.970756,0.025439,0.036064,9.759863
2.974515,0.027834,0.015413,9.805354
2.984977,0.045043,0.046689,9.788594
2.995006,0.042798,0.013019,9.791886
3.005069,0.004789,-0.004489,9.794580
3.014943,-0.010475,0.025140,9.789791
3.024957,-0.060456,0.005986,9.781411
3.041137,-0.073026,0.039506,9.760162
3.045612,-0.042349,0.046389,9.767494
3.054938,-0.038159,0.040703,9.754326
3.064915,0.011074,0.031126,9.776772
3.075081,0.019903,0.036513,9.776323
3.084838,0.062700,0.033819,9.778718
3.094980,0.042648,0.015413,9.785751
3.111154,0.019154,0.003891,9.793832
3.114623,0.004040,0.007931,9.809843
3.124995,-0.028283,0.017658,9.786499
3.134977,-0.060905,0.028731,9.787098
3.146088,-0.073026,0.032473,9.763454
3.154862,-0.057014,0.024691,9.767494
3.164910,0.008979,0.032323,9.779167
3.175742,0.022297,0.024841,9.769889
3.185024,0.036962,0.029031,9.798171
3.194932,0.050579,0.006285,9.806402
3.204970,0.027834,0.024841,9.793981
3.215218,0.004789,0.012720,9.792634
3.224887,-0.025589,0.000599,9.783806
3.234897,-0.071230,0.024093,9.771086
3.245994,-0.067938,0.032173,9.771385
3.255034,-0.039506,0.041601,9.759713
3.264910,-0.013318,0.038608,9.765100
3.274960,0.012271,0.035016,9.783357
3.284945,0.005986,0.039655,9.776922
3.294905,0.035914,0.025140,9.796226
3.304969,0.028731,0.003591,9.792784
3.321676,-0.028432,0.006135,9.784254
3.335085,-0.045641,0.009577,9.790091
3.345159,-0.041750,0.038458,9.768841
3.355090,-0.054470,0.039206,9.780364
3.365040,-0.027385,0.049083,9.765848
3.375051,-0.000898,0.030976,9.767794
3.391759,0.042648,0.020351,9.795927
3.404901,0.048484,0.005088,9.789941
3.414925,0.029779,-0.006135,9.798770
3.425081,0.010026,0.006584,9.805953
3.434963,-0.019903,-0.013019,9.806551
3.445549,-0.061952,0.032772,9.762706
3.458810,-0.058810,0.059558,9.776024
3.464778,-0.025888,0.050579,9.761209
3.474981,-0.013917,0.034268,9.729186
3.484817,0.016461,0.038309,9.759264
3.495145,0.012271,0.039356,9.808347
3.504966,0.028283,0.007781,9.797124
3.514977,0.022746,-0.007333,9.819869
3.528779,0.005387,0.006435,9.822713
3.534836,-0.011523,0.005238,9.802361
3.545403,-0.052674,0.021998,9.773779
3.554917,-0.060605,0.051776,9.757768
3.565111,-0.047886,0.050729,9.766297
3.575053,-0.030378,0.076019,9.768093
3.584892,-0.001496,0.052824,9.764502
3.602370,0.022746,0.007781,9.797722
3.615126,0.027834,0.014066,9.789642
3.624911,0.022297,-0.019154,9.795178
3.634994,-0.012420,0.006734,9.793832
3.645094,-0.040853,0.023344,9.784404
3.654961,-0.051477,0.044444,9.788744
3.672442,-0.031874,0.054021,9.756421
3.684821,-0.027983,0.055817,9.766746
3.694941,-0.011822,0.057463,9.778867
3.704962,0.027534,0.015114,9.799967
3.714933,0.024691,0.016311,9.787696
3.725069,0.021249,-0.006734,9.821665
3.742794,-0.028283,0.012570,9.771684
3.754917,-0.027834,0.048634,9.756122
3.764914,-0.023195,0.039805,9.764651
3.775075,-0.030228,0.059708,9.747891
3.784735,-0.006734,0.071679,9.750734
3.794983,0.002544,0.049083,9.761958
3.807218,0.028133,0.021998,9.787696
3.815202,0.012570,-0.002245,9.819421
3.824890,-0.016311,-0.004040,9.832290
3.834899,0.026487,0.005238,9.822862
3.845795,-0.006135,0.004489,9.793981
3.854952,-0.026636,0.027385,9.773779
3.864948,-0.027085,0.049532,9.776024
3.883040,-0.014366,0.061503,9.765998
3.894875,-0.010176,0.060605,9.775276
3.904894,0.012420,0.036064,9.778418
3.915032,0.018855,0.003442,9.798022
3.924988,0.036663,0.012869,9.816577
3.935071,0.006135,0.010475,9.811789
3.953111,-0.030677,0.034568,9.789043
3.964969,-0.020950,0.020351,9.784254
3.974942,-0.026786,0.065394,9.751483
3.984909,-0.020202,0.072278,9.743701
3.995068,-0.029330,0.040553,9.762556
4.005090,0.009278,0.027235,9.786948
4.024079,0.007033,-0.021549,9.804905
4.034930,0.014366,0.007183,9.804905
4.045257,0.016161,0.024841,9.803558
4.055106,-0.005836,0.022596,9.779466
4.064962,-0.023644,0.032921,9.774977
4.074958,-0.012720,0.065993,9.754775
4.093100,-0.006285,0.070781,9.779765
4.105003,0.002993,0.038159,9.773630
4.114922,-0.015114,0.012869,9.781262
4.125053,0.026636,-0.010176,9.815979
4.134970,0.009577,0.009727,9.823760
4.145616,0.019454,0.000000,9.809245
4.160582,-0.031126,0.023793,9.781561
4.174974,-0.023045,0.057912,9.754775
4.184803,-0.024242,0.048634,9.747742
4.195150,-0.024541,0.071230,9.752081
4.204918,-0.017658,0.040254,9.768392
4.214927,-0.004040,0.036812,9.779616
4.229717,-0.002394,-0.021399,9.790689
4.245074,0.002095,0.003143,9.799069
4.254998,0.010026,0.006285,9.795178
4.264990,0.003741,0.027534,9.796076
4.275016,-0.019154,0.048784,9.771984
4.284821,-0.016161,0.068686,9.764202
4.294370,-0.031275,0.053572,9.759414
4.304882,-0.029480,0.066591,9.761509
4.314880,-0.006734,0.039506,9.790539
4.324932,0.008829,0.007931,9.802062
4.335000,0.006734,0.006135,9.786349
4.345249,0.025589,-0.000299,9.792186
4.354896,0.019603,0.008829,9.813884
4.369146,-0.007931,0.035465,9.771385
4.384835,-0.031275,0.044893,9.769889
4.394888,-0.027834,0.043696,9.759863
4.405263,-0.011971,0.029929,9.793083
4.425272,0.005387,-0.002843,9.786349
4.440827,-0.002095,-0.007632,9.809544
4.445292,0.016910,0.019454,9.811938
4.454903,0.008380,0.031724,9.787996
4.475031,-0.007781,0.044145,9.764651
4.494907,-0.031874,0.047736,9.780064
4.508747,-0.038009,0.025439,9.787547
4.514832,-0.024691,0.018107,9.791587
4.524968,-0.003442,0.001347,9.797573
4.534910,-0.007183,-0.000748,9.802212
4.545339,0.008380,-0.006584,9.790988
4.554948,0.011822,0.023793,9.802960
4.574933,-0.031126,0.041451,9.774378
4.590867,-0.028432,0.066292,9.762706
4.604871,-0.022446,0.053871,9.761359
4.615075,-0.031874,0.024392,9.788295
4.624911,-0.008380,0.010325,9.788893
4.634969,0.020052,0.007033,9.802212
4.654913,0.017359,0.017209,9.800117
4.669625,-0.009577,0.023045,9.794430
4.674681,0.004639,0.019603,9.767045
4.685137,-0.021998,0.048634,9.745198
4.694916,-0.021549,0.054320,9.761658
4.704890,-0.044743,0.032622,9.767345
4.714920,-0.044444,0.025739,9.789342
4.724999,-0.007033,0.015413,9.780364
4.739830,-0.005088,-0.004340,9.804606
4.745190,0.015114,0.002394,9.782758
4.754992,0.010774,0.019454,9.802212
4.765006,0.031575,0.004789,9.801014
4.774941,0.016910,0.045491,9.779616
4.784779,-0.022446,0.031126,9.773630
4.794978,-0.027834,0.051926,9.759563
4.809859,-0.053423,0.035765,9.761209
4.814635,-0.027085,0.024841,9.773031
4.824949,-0.017957,0.010176,9.769739
4.834881,-0.010325,0.016760,9.808347
4.845120,0.001496,0.001347,9.799368
4.854906,0.028582,0.004040,9.805354
4.864910,0.020351,-0.001347,9.810292
4.880814,0.011223,0.030228,9.760760
4.884637,-0.012869,0.038009,9.752979
4.894952,-0.046689,0.068836,9.847703
4.904874,-0.051028,0.031724,9.719160
4.914935,-0.016461,0.023494,9.783207
4.924862,-0.017658,0.008979,9.822264
4.934242,-0.012570,0.008979,9.808946
4.944463,0.007333,-0.007033,9.817326
4.954879,0.026636,0.006135,9.837078
4.965033,0.017808,0.033370,9.793981
4.974884,0.016910,0.063299,9.776473
4.984818,-0.009128,0.053871,9.774378
4.994861,-0.032024,0.058959,9.735471
5.004864,-0.042648,0.063449,9.783506
5.020452,-0.037411,0.025290,9.745048
5.025092,-0.036962,0.009727,9.750585
5.034953,0.014066,0.000748,9.866109
5.044964,0.030527,-0.006135,9.804606
5.054928,0.020950,-0.014815,9.792634
5.064915,-0.000299,0.024841,9.838874
5.074877,0.041002,0.023045,9.762107
5.084360,0.019304,0.073774,9.741606
5.095109,-0.022446,0.045342,9.795627
5.104966,-0.040553,0.048035,9.764352
5.114865,-0.042349,0.034867,9.769440
5.124881,-0.048784,0.013618,9.793981
5.134954,-0.010325,-0.006734,9.795927
5.144954,-0.000150,0.012720,9.799518
5.154251,0.022297,-0.004190,9.815380
5.164945,0.030378,0.023045,9.796525
5.174900,0.000748,0.042499,9.810292
5.184783,0.006734,0.043247,9.777670
5.194991,-0.032772,0.052525,9.741756
5.204830,-0.035316,0.049831,9.787696
5.214928,-0.053871,0.044743,9.776922
5.224692,-0.045940,0.015563,9.759264
5.234857,-0.038458,0.004190,9.810592
5.245136,0.000299,-0.006584,9.808497
5.254856,0.022446,0.012271,9.791437
5.264845,0.025888,0.001945,9.802960
5.274911,0.025589,0.026786,9.804756
5.284826,0.019753,0.047586,9.765699
5.294789,-0.020950,0.041451,9.781262
5.304827,-0.019154,0.056116,9.769589
5.314915,-0.044743,0.057912,9.755673
5.324972,-0.049981,0.033819,9.785152
5.334833,-0.044444,0.017209,9.798770
5.345078,-0.004340,0.001048,9.798471
5.354865,0.027085,0.011373,9.822413
5.364657,0.035765,0.012271,9.799518
5.375009,0.024093,0.022147,9.791737
5.384871,0.029180,0.049532,9.776024
5.394933,0.013468,0.027385,9.777520
5.404834,-0.017209,0.049083,9.770936
5.414847,-0.045641,0.036663,9.790240
5.424970,-0.039655,0.031126,9.749238
5.434562,-0.042948,0.023644,9.791886
5.444866,-0.025739,-0.000748,9.804606
5.454896,0.013318,0.002993,9.789043
5.464844,0.018406,0.006135,9.825107
5.474844,0.029779,0.033370,9.802062
5.484800,0.009278,0.052076,9.767494
5.495007,-0.012570,0.056864,9.779616
5.504562,0.002544,0.069135,9.781262
5.514885,-0.036663,0.065693,9.764352
5.524936,-0.050430,0.024841,9.777969
5.534840,-0.033071,0.008679,9.780513
5.544889,-0.023943,0.013468,9.801314
5.554829,-0.006584,0.007781,9.805653
5.564840,0.017508,0.008230,9.796675
5.574551,0.049233,0.002843,9.807299
5.584828,0.035765,0.025888,9.789043
5.594907,0.013019,0.045791,9.782010
5.604833,-0.022596,0.045192,9.791737
5.614847,-0.042199,0.020501,9.789492
5.624876,-0.044294,0.049681,9.760012
5.634828,-0.052674,0.032173,9.774528
5.644813,-0.036812,0.027684,9.802212
5.654832,-0.005387,-0.004040,9.788893
5.664907,0.039655,0.026487,9.782908
5.674824,0.028283,0.021549,9.794580
5.684810,0.049083,0.027684,9.777072
5.694991,-0.000150,0.042948,9.777820
5.704884,-0.016610,0.037860,9.779167
5.714604,-0.036214,0.037111,9.769589
5.725104,-0.049831,0.035914,9.779466
5.734899,-0.068237,0.019304,9.799518
5.744887,-0.057912,0.008530,9.778568
5.754896,-0.023195,0.010325,9.796076
5.764840,0.006435,0.024990,9.786499
5.774834,0.018256,0.030677,9.805354
5.784611,0.030527,0.043995,9.792186
5.794854,0.029629,0.026038,9.780813
5.804861,-0.007632,0.041451,9.783656
5.814866,-0.042798,0.032473,9.792335
5.825065,-0.030826,0.034867,9.779316
5.834832,-0.061653,0.014366,9.779017
5.844518,-0.044145,0.024691,9.789043
5.854563,-0.030677,0.014665,9.773031
5.864885,0.007931,0.007632,9.780813
5.875077,0.023793,0.037710,9.774677
5.884776,0.042199,0.043097,9.790091
5.894914,0.007931,0.036363,9.793981
5.904829,0.008530,0.034717,9.774677
5.914844,-0.015114,0.026786,9.793083
5.924534,-0.034268,0.020202,9.779915
5.934845,-0.042349,0.023644,9.774079
5.944924,-0.035615,0.034268,9.783656
5.954829,-0.013318,0.033520,9.792784
5.964848,-0.002694,0.021399,9.778867
5.974839,0.010176,0.027385,9.770487
5.984789,0.013917,0.019005,9.809095
5.994551,0.011223,0.030527,9.782159
6.004839,-0.011074,0.013618,9.786499
6.014943,-0.001945,0.024541,9.819570
6.024830,-0.024990,0.020052,9.792186
6.034855,-0.031575,0.014665,9.761209
6.045012,-0.045641,0.043396,9.796974
6.054823,-0.043845,0.035615,9.787397
6.064579,-0.017359,0.022297,9.765399
6.074908,0.005836,0.008230,9.799219
6.084915,0.004040,0.032921,9.783806
6.094839,0.026487,0.029480,9.796376
6.104883,0.011672,0.024841,9.798471
6.114854,0.002993,0.028731,9.801164
6.124832,-0.025439,0.038159,9.802062
6.134119,-0.050130,0.041601,9.787098
6.145052,-0.039506,0.031575,9.767794
6.154911,-0.050130,0.040404,9.791288
6.164840,-0.020202,0.013618,9.792485
6.174838,0.004789,0.026936,9.770787
6.184809,0.014216,0.047736,9.789941
6.194976,0.015563,0.059259,9.842017
6.204715,0.026038,0.008979,9.736967
6.214878,0.009428,0.014815,9.819421
6.225057,-0.006435,0.012720,9.829746
6.234924,-0.022446,0.001496,9.778867
6.244831,-0.027085,-0.001347,9.808197
6.254844,-0.066292,0.022596,9.811489
6.264856,-0.029779,0.040853,9.791587
6.274738,-0.026038,0.034867,9.787547
6.284804,-0.004489,0.039356,9.795777
6.295276,0.002095,0.016910,9.771535
6.304922,0.006135,0.019603,9.797124
6.314909,0.012570,0.014815,9.797573
6.324889,-0.020651,-0.004489,9.799518
6.334838,-0.007033,0.031874,9.832888
6.344972,-0.063149,0.010475,9.766148
6.354837,-0.033520,0.027534,9.779167
6.364840,-0.040254,0.058810,9.805504
6.374859,-0.027834,0.039805,9.774677
6.384801,0.001048,0.041451,9.763753
6.395026,0.005986,0.048035,9.806402
6.404857,0.027085,0.044294,9.792335
6.414724,0.013767,0.001646,9.789342
6.424835,0.008530,-0.002843,9.828998
6.434828,0.026038,-0.010924,9.821516
6.444884,-0.025888,0.014964,9.780813
6.454833,-0.043995,0.041750,9.795627
6.464847,-0.001197,0.049233,9.766746
6.475041,-0.010176,0.033969,9.784703
6.494830,0.009727,0.041750,9.771535
6.504840,-0.000898,0.028881,9.799967
6.514885,-0.007482,0.009128,9.792485
6.534838,-0.005686,0.027385,9.800865
6.544863,-0.033520,0.019154,9.756421
6.554683,-0.031425,0.027385,9.782459
6.574953,-0.004639,0.044893,9.753877
6.584845,-0.003292,0.047886,9.789941
6.594833,0.010026,0.020501,9.817326
6.604829,0.010325,0.013618,9.812387
6.614865,0.010176,0.012570,9.819869
6.624670,0.005387,0.015114,9.812836
6.634850,-0.014665,0.034268,9.795627
6.644832,-0.006435,0.043097,9.789193
6.654904,-0.021249,0.038309,9.780663
6.664843,-0.032173,0.044893,9.773779
6.674836,-0.018705,0.037111,9.766746
6.684825,-0.026038,0.026038,9.781112
6.694696,-0.002843,0.032024,9.771684
6.704842,0.015862,0.017059,9.825406
6.714868,0.016610,0.012720,9.795478
6.724987,0.006734,0.002694,9.815979
6.734841,-0.019903,0.016461,9.830045
6.744884,-0.022147,0.032024,9.786649
6.754845,-0.026038,0.035316,9.771535
6.764738,-0.005986,0.047586,9.783955
6.774898,-0.014815,0.042648,9.785003
6.784783,-0.003292,0.040404,9.781262
6.795065,-0.019154,0.045043,9.812836
6.804839,0.005836,0.012869,9.798471
6.814841,0.007781,0.006435,9.818822
6.824979,0.023045,-0.002694,9.810292
6.834652,0.001945,0.004938,9.793083
6.844950,-0.011223,0.017658,9.801613
6.854838,-0.019304,0.024242,9.789642
6.864896,-0.027085,0.045940,9.790839
6.874982,-0.021698,0.049981,9.769290
6.884809,-0.026188,0.040404,9.778119
6.894829,-0.029629,0.044145,9.779017
6.904651,-0.018556,0.000449,9.792485
6.914850,-0.000449,0.022746,9.820767
6.924897,0.001646,-0.003442,9.801014
6.934886,-0.002394,0.013019,9.801763
6.944875,0.016760,-0.000449,9.809544
6.954833,-0.035016,0.039805,9.800865
6.964836,-0.026487,0.040553,9.792485
6.974660,-0.012869,0.045940,9.768841
6.984792,-0.017658,0.044294,9.780962
6.994870,-0.031724,0.042948,9.775725
7.004898,-0.021698,0.028283,9.802361
7.014931,-0.003442,0.019603,9.809095
7.025040,-0.014665,0.005686,9.818223
7.034838,0.002245,-0.000748,9.809694
7.045007,-0.000299,-0.009128,9.790539
7.054363,-0.008230,0.029031,9.816577
7.064832,-0.003292,0.034268,9.779616
7.074873,-0.005088,0.038159,9.779316
7.084791,-0.005686,0.078563,9.852342
7.095081,-0.012869,0.027235,9.736219
7.104856,-0.026636,0.021249,9.782159
7.114665,-0.027085,0.016760,9.837677
7.124950,0.000150,0.012121,9.800566
7.134839,-0.002544,-0.012570,9.808497
7.144919,0.002394,0.017209,9.797124
7.154892,-0.000150,0.042050,9.791138
7.164861,-0.008979,0.045940,9.772582
7.174919,-0.003292,0.052824,9.774528
7.184404,-0.014815,0.068686,9.758516
7.195020,-0.011672,0.027085,9.810741
7.204847,0.012420,0.020501,9.782159
7.214957,-0.002095,0.014066,9.780663
7.224840,-0.001048,0.018705,9.828848
7.234828,0.007333,-0.004489,9.807000
7.244960,-0.009577,0.005836,9.782159
7.254724,-0.007333,0.039655,9.814183
7.264897,-0.006285,0.038907,9.786349
7.274827,-0.017508,0.031724,9.765699
7.284832,-0.024541,0.050729,9.796525
7.294992,-0.013169,0.040853,9.779167
7.304846,-0.013318,0.030378,9.776922
7.314836,-0.013169,0.022746,9.812986
7.324770,-0.001197,0.018556,9.802361
7.334659,-0.010475,-0.017508,9.797872
7.344853,-0.006734,-0.015413,9.814183
7.354880,0.014366,0.012869,9.799219
7.364836,-0.011672,0.039356,9.773480
7.374833,-0.028432,0.052525,9.771235
7.384796,-0.027834,0.046389,9.767045
7.394920,-0.015413,0.059259,9.774677
7.404837,-0.032323,0.026636,9.796076
7.414838,-0.013618,0.016760,9.769140
7.424877,0.022596,0.012869,9.828848
7.434848,0.000150,-0.003442,9.830195
7.444824,0.006884,0.013468,9.783955
7.454846,0.008530,0.014815,9.799368
7.464803,0.016161,0.041002,9.824059
7.474831,-0.005238,0.032622,9.747293
7.484801,-0.017808,0.055966,9.790689
7.494877,-0.008530,0.034418,9.777371
7.504921,-0.020351,0.034418,9.762407
7.514834,-0.027834,0.023943,9.786349
7.524989,-0.010625,0.018406,9.802810
7.534714,-0.000150,0.009577,9.809544
7.545209,0.009428,0.002544,9.795777
7.554853,0.012420,0.032173,9.813884
7.564895,-0.012121,0.026337,9.809095
7.574826,-0.010176,0.042050,9.797124
7.584810,-0.014964,0.055069,9.762855
7.594824,-0.027385,0.046539,9.786200
7.604712,-0.019154,0.047138,9.789642
7.614878,-0.017658,0.019753,9.774528
7.624856,-0.027385,0.019454,9.794131
7.634910,0.008829,0.012271,9.816428
7.644824,0.001646,0.008380,9.805803
7.654921,-0.003591,-0.003741,9.817774
7.664837,0.003591,0.033221,9.815530
7.674730,0.000299,0.036064,9.764352
7.684794,-0.020800,0.034418,9.787547
7.694890,-0.000150,0.054470,9.783357
7.704960,-0.043247,0.030378,9.771086
7.714914,-0.016910,0.024392,9.787098
7.724951,-0.026487,0.024242,9.789642
7.734873,-0.006435,0.010176,9.807898
7.745252,-0.004639,0.001796,9.806551
7.754845,0.000599,0.020800,9.814183
7.764833,-0.014665,0.005537,9.809544
7.774851,0.008081,0.020202,9.812387
7.784785,-0.001496,0.033670,9.772433
7.794835,-0.027085,0.049831,9.795777
7.804828,-0.009278,0.032323,9.771684
7.814788,-0.019154,0.062401,9.769440
7.824827,-0.010026,0.006734,9.796226
7.834824,-0.001347,0.029480,9.810442
7.844920,-0.001347,-0.001796,9.827352
7.854843,0.024242,0.027684,9.786050
7.864843,0.003741,-0.007482,9.808048
7.874824,-0.002095,0.020800,9.789642
7.884813,-0.006435,0.036214,9.785003
7.894824,0.001646,0.026636,9.782608
7.904831,-0.015862,0.038907,9.784853
7.914971,-0.024093,0.057463,9.770338
7.924835,-0.031874,0.041451,9.811938
7.934863,-0.038608,0.022895,9.840969
7.944875,-0.002394,0.005387,9.785901
7.954761,0.019304,0.017059,9.807000
7.964888,0.009428,0.023644,9.829297
7.974830,0.010924,0.029330,9.808497
7.984842,-0.010774,0.019603,9.778418
7.994832,-0.004489,0.027085,9.795777
8.004908,-0.007632,0.046988,9.789941
8.014827,-0.037111,0.035765,9.786349
8.024674,-0.056266,0.030826,9.781860
8.034878,-0.033520,0.023793,9.811340
8.044828,0.002843,0.022446,9.840371
8.054882,0.011223,0.004789,9.797573
8.064844,0.036214,0.009278,9.809993
8.074822,0.015114,0.020950,9.816577
8.084778,-0.012420,0.031425,9.750285
8.094660,-0.008979,0.047586,9.779616
8.104841,-0.046838,0.037111,9.807599
8.114848,-0.027834,0.037111,9.784105
8.124860,-0.025439,0.028133,9.771235
8.134851,-0.038309,0.031874,9.819720
8.144921,-0.005836,0.020202,9.797273
8.154849,-0.000748,-0.000748,9.801164
8.164688,0.014066,0.008530,9.814632
8.174817,0.007931,0.002245,9.826603
8.184844,0.023943,0.010924,9.805055
8.194881,-0.005238,0.020501,9.790988
8.204844,-0.027983,0.044743,9.772732
8.214854,-0.021249,0.041152,9.778119
8.224820,-0.022746,0.044594,9.783357
8.234714,-0.035316,0.029629,9.804905
8.245226,-0.021249,0.026038,9.811190
8.254833,-0.008530,0.003442,9.789941
8.264887,-0.007632,0.011523,9.798620
8.274828,0.011523,0.026337,9.821067
8.284787,0.009428,0.014366,9.808048
8.294929,0.008081,0.044594,9.796974
8.304181,0.006734,0.049831,9.783506
8.314579,-0.039506,0.057014,9.768093
8.324823,-0.045342,0.032622,9.760611
8.334841,-0.023045,0.018556,9.804157
8.344903,-0.009428,0.034568,9.796376
8.354823,-0.008081,0.016311,9.806851
8.364830,0.010774,0.020351,9.820019
8.374755,0.015563,0.009278,9.795328
8.384773,0.021848,0.036064,9.806252
8.394818,0.004489,0.044893,9.812687
8.404849,-0.012720,0.036214,9.787247
8.414887,-0.028133,0.042199,9.796076
8.424828,-0.036513,0.039655,9.793532
8.434831,-0.038758,0.047586,9.776922
8.445226,-0.038608,0.029480,9.779316
8.454860,0.001945,0.041002,9.810592
8.464883,0.010625,0.028133,9.826903
8.474844,0.023793,0.017209,9.818523
8.484885,0.028133,0.016760,9.813584
8.494842,0.008679,0.022147,9.810592
8.504862,-0.013767,0.034568,9.769589
8.524846,-0.046689,0.033370,9.771684
8.534826,-0.015114,0.029180,9.780364
8.544854,-0.027235,0.001796,9.781112
8.554865,0.000599,0.024841,9.798770
8.564829,0.019154,0.019753,9.802661
8.574808,0.033071,0.011523,9.814033
8.584847,0.005088,0.041301,9.803109
8.604896,-0.014216,0.033071,9.790839
8.614821,-0.043097,0.019454,9.789941
8.624881,-0.031575,0.020800,9.792634
8.634906,-0.036812,0.019603,9.792784
8.644851,-0.016012,0.019304,9.785003
8.654674,-0.001945,0.009128,9.790240
8.664945,0.023494,0.055368,9.813884
8.674907,0.011822,0.029180,9.823760
8.684812,0.017059,0.020651,9.796376
8.694882,0.002394,0.020202,9.823162
8.704836,-0.027235,0.044444,9.802810
8.714829,-0.032024,0.029929,9.771385
8.724718,-0.066441,0.032024,9.793832
8.734843,-0.049233,0.031126,9.789941
8.744848,-0.020351,0.031575,9.796376
8.754833,-0.021100,0.031575,9.805504
8.764919,0.032024,0.017059,9.803409
8.774899,0.023644,0.031126,9.808497
8.784767,0.030228,0.016012,9.818972
8.794721,0.003292,0.016161,9.808197
8.804902,-0.007183,0.034119,9.813285
8.814787,-0.034568,0.030378,9.802511
8.824932,-0.026936,0.025290,9.788594
8.834875,-0.041152,0.016910,9.816428
8.844833,-0.035316,0.041301,9.811938
8.854895,-0.015114,0.014665,9.795328
8.864728,-0.013618,0.025439,9.790988
8.874819,0.016610,0.014964,9.816128
8.884830,0.002095,0.028881,9.793083
8.894823,0.016161,0.039206,9.802810
8.904926,0.016610,0.033071,9.807898
8.914835,-0.028133,0.014216,9.808497
8.924818,-0.025290,0.035914,9.795478
8.934695,-0.043396,0.028881,9.801613
8.945190,-0.020052,0.036812,9.806851
8.954829,-0.003143,0.027834,9.808946
8.964829,0.007033,0.042948,9.807898
8.974947,0.012121,0.021100,9.813584
8.984858,0.025290,0.002993,9.788744
8.994814,-0.001496,0.006285,9.807000
9.004686,0.004938,0.014665,9.802062
9.014955,-0.009278,0.016610,9.819121
9.024827,-0.046988,0.029330,9.781411
9.034830,-0.019154,0.026487,9.778867
9.044906,-0.050130,0.026188,9.792784
9.054847,-0.039655,0.038159,9.785901
9.064846,-0.011523,0.002245,9.797273
9.074687,0.011672,0.019903,9.820318
9.084879,0.009278,0.016910,9.792186
9.094890,0.014515,0.018556,9.820019
9.104816,0.019304,0.027385,9.824658
9.114869,0.004639,0.006734,9.814183
9.124817,-0.000449,0.012869,9.794729
9.134816,-0.050430,0.012121,9.784554
9.145280,-0.036962,0.031724,9.801463
9.154900,-0.031575,0.012570,9.798171
9.164841,-0.023943,0.019005,9.829447
9.174863,-0.019903,0.033071,9.796076
9.184845,0.022297,0.031874,9.795927
9.194868,0.003891,0.019005,9.807150
9.204982,0.011373,0.008380,9.794580
9.216778,0.004340,0.022895,9.802212
9.224853,-0.018855,0.021698,9.796076
9.234968,-0.024242,0.032921,9.818822
9.245817,-0.045342,0.043995,9.812537
9.255048,-0.037411,0.048933,9.778718
9.264922,-0.047437,0.023045,9.801763
9.274942,-0.006435,0.046988,9.816877
9.287919,0.013767,0.025589,9.819271
9.294939,0.030976,0.019903,9.787247
9.304876,0.006584,0.024392,9.799817
9.314817,-0.016910,0.033969,9.806701
9.325011,0.004040,0.012570,9.786349
9.334995,-0.036663,0.015264,9.796824
9.346203,-0.043546,0.035016,9.814782
9.359623,-0.033819,0.024093,9.810592
9.364676,-0.036663,0.041002,9.785751
9.374892,0.000000,0.033071,9.793832
9.384846,0.018406,0.036663,9.822862
9.394964,0.018556,0.031275,9.807150
9.404925,0.010176,0.013917,9.835133
9.415106,-0.020950,0.008679,9.803858
9.434419,-0.013767,0.037860,9.797872
9.446117,-0.019753,0.036962,9.804157
9.455107,-0.035615,0.030378,9.787696
9.465062,-0.031724,0.029929,9.796076
9.474937,-0.014216,0.035166,9.808497
9.484872,0.003292,0.046539,9.789342
9.495085,0.005387,0.032473,9.804157
9.504979,0.034418,0.012271,9.840221
9.515582,0.019154,0.004789,9.833038
9.525086,-0.003292,0.001796,9.805953
9.535000,-0.016161,0.007931,9.785152
9.546429,-0.039206,0.024093,9.796974
9.555209,-0.024841,0.048484,9.778867
9.570610,-0.019454,0.019753,9.776922
9.584845,-0.045192,0.060605,9.782459
9.595035,-0.021698,0.042349,9.789193
9.605194,0.029330,0.028133,9.808946
9.615300,0.024691,0.124054,9.839323
9.625140,-0.049831,0.057912,9.811639
9.640312,0.048634,0.081256,9.795029
9.655012,-0.020651,-0.055966,9.783357
9.664983,-0.012121,0.080807,9.790839
9.675321,0.094724,0.079311,9.788444
9.684962,0.002544,-0.009428,9.807449
9.694934,-0.031126,0.000449,9.777820
9.711782,0.031275,0.024541,9.804456
9.724983,0.070482,0.023344,9.840670
9.735007,0.080059,0.021249,9.803708
9.745930,0.003143,-0.014066,9.815380
9.755131,-0.019005,-0.024242,9.822114
9.765042,-0.052375,0.000449,9.814931
9.781020,0.051926,0.099513,9.796076
9.794932,0.064795,0.070781,9.813136
9.805016,0.031425,-0.010774,9.796525
9.815160,-0.027085,-0.032323,9.813435
9.825173,-0.000599,0.000898,9.823910
9.835037,0.075420,0.031126,9.812088
9.851464,-0.002394,-0.006285,9.827052
9.864921,-0.061054,0.016910,9.771834
9.874939,-0.001197,0.069135,9.757019
9.884709,0.097118,0.109688,9.788295
9.895288,0.014366,-0.007033,9.773630
9.905081,-0.043546,-0.023045,9.793981
9.922387,0.092629,0.061653,9.818074
9.934845,0.054470,-0.024990,9.790689
9.946002,-0.045491,-0.039206,9.831841
9.955016,-0.010176,0.045192,9.816577
9.965024,0.049981,0.091432,9.761209
9.975138,0.041002,0.013169,9.749986
9.991661,-0.019454,0.036214,9.796675
10.004952,0.037411,0.075869,9.768841
10.015037,0.089337,0.023344,9.821067
10.024955,0.040703,-0.048185,9.840221
10.035009,-0.015413,-0.011074,9.799518
10.046199,0.039057,0.046389,9.755373
10.063618,0.011373,-0.015862,9.774228
10.075096,-0.052674,0.020052,9.783656
10.084803,-0.000150,0.082154,9.784853
10.095110,0.080209,0.050430,9.806701
10.105033,0.009128,-0.007781,9.826753
10.115089,-0.037860,0.002095,9.833188
10.133461,0.140814,0.042798,9.822713
10.146090,0.030378,-0.029480,9.842166
10.155064,-0.024691,-0.002843,9.768392
10.164961,-0.004489,0.057313,9.768991
10.174954,0.091731,0.066441,9.815380
10.184826,0.017209,-0.008081,9.839772
10.200327,0.030378,0.045342,9.770787
10.214930,0.090384,0.015713,9.804456
10.224879,0.001646,-0.014815,9.867755
10.234911,-0.034268,-0.012420,9.767494
10.245689,0.025290,0.050130,9.752680
10.254947,0.058810,0.042798,9.849050
10.268936,-0.032473,-0.002993,9.809694
10.285019,0.051477,0.082453,9.792485
10.295216,0.062700,0.044893,9.766447
10.304992,-0.005686,0.017508,9.807150
10.314971,-0.008230,0.032323,9.833936
10.324966,0.041152,0.079610,9.764801
10.340071,-0.010026,-0.038758,9.842914
10.355129,-0.017808,-0.001347,9.841568
10.364944,0.055817,0.058361,9.786798
10.374859,0.051776,0.001945,9.769290
10.384978,-0.033370,-0.027385,9.832439
10.395020,-0.011822,0.045043,9.833786
10.409715,0.042648,0.042199,9.766896
10.424952,-0.021998,0.019903,9.854287
10.434968,-0.005387,0.021848,9.803259
10.445593,0.075420,0.042499,9.776623
10.454992,0.050130,0.012570,9.804007
10.464986,-0.039356,-0.038758,9.848302
10.492063,0.040553,0.013917,9.758516
10.504855,-0.022895,-0.013318,9.818672
10.515037,-0.017658,0.052225,9.826005
10.525007,0.076318,0.089038,9.793981
10.534935,0.033670,0.001945,9.764352
10.547175,-0.010325,0.021549,9.824059
10.565262,0.074073,0.086344,9.774079
10.574963,0.039655,-0.017209,9.785452
10.584936,-0.044294,-0.045342,9.796226
10.595010,0.003891,0.059109,9.823611
10.604991,0.080358,0.105199,9.779017
10.623187,-0.037710,-0.030228,9.823012
10.635075,0.079311,0.074672,9.793532
10.645736,0.034119,-0.024541,9.807299
10.655066,-0.043696,-0.029629,9.828399
10.664971,0.004789,0.048634,9.827352
10.674940,0.084698,0.076019,9.819720
10.693225,0.034867,0.004190,9.779915
10.695569,-0.035914,-0.017808,9.778718
10.705148,0.005537,0.055667,9.803558
10.715108,0.102056,0.103254,9.803109
10.735015,-0.062850,-0.036962,9.784853
10.746664,0.015413,0.040404,9.812088
10.761301,0.088738,0.055817,9.834235
10.764423,0.037860,-0.016910,9.796974
10.775121,-0.049083,-0.061054,9.759264
10.785197,0.000748,0.052974,9.829447
10.794978,0.094574,0.067040,9.808796
10.805026,0.052375,0.000299,9.791737
10.815130,-0.049831,-0.027834,9.765998
10.829907,0.006734,0.045491,9.803558
10.834589,0.094874,0.064047,9.823012
10.845366,0.038907,-0.025290,9.817026
10.855020,-0.063898,-0.040553,9.795029
10.865072,0.019005,0.052974,9.800865
10.874955,0.102056,0.073175,9.827202
10.885082,0.040703,-0.002245,9.803708
10.901486,-0.057613,-0.013318,9.802212
10.904356,0.005686,0.060605,9.790539
10.915118,0.091581,0.069434,9.816877
10.925231,0.013019,-0.000748,9.795927
10.935011,-0.064346,0.007033,9.772882
10.945750,0.014815,0.054919,9.792934
10.955036,0.081106,0.039506,9.825706
10.970839,0.019454,-0.024990,9.824059
10.974815,-0.033071,-0.007482,9.793233
10.985098,0.036214,0.045641,9.772582
10.995363,0.080209,0.051477,9.799368
11.005069,-0.008380,-0.020351,9.831542
11.015444,-0.002095,0.043097,9.798919
11.024150,0.032473,0.065993,9.787696
11.047852,-0.023793,-0.046689,9.818972
11.055111,0.000299,0.029031,9.816278
11.065191,0.093377,0.054769,9.798171
11.074097,0.050130,-0.009128,9.763604
11.084769,-0.055069,-0.045641,9.803858
11.095088,0.029480,-0.087541,9.281304
11.111357,0.070931,0.244068,10.262364
11.114429,0.049831,-0.055817,9.843962
11.124926,-0.077814,-0.086793,9.317518
11.134889,-0.054620,0.009128,10.188889
11.146047,0.069584,0.076916,9.863864
11.154988,0.093826,-0.049382,9.624885
11.164964,-0.026487,-0.017658,9.783357
11.183017,0.070033,0.077066,9.709882
11.194978,0.085296,0.048634,9.738314
11.204877,0.028731,-0.019903,9.816128
11.215009,-0.011074,0.017658,9.798919
11.225103,0.010026,0.034867,9.926864
11.235022,0.075121,-0.060755,9.654664
11.253345,-0.067639,0.073924,9.992108
11.265055,0.005986,0.010924,9.540486
11.274957,0.116273,0.002843,9.852641
11.284854,0.044594,0.082304,9.974750
11.295079,-0.053273,0.052375,9.587923
11.305045,-0.001347,0.066591,9.764651
11.329811,0.008979,-0.067938,9.735770
11.334798,-0.064197,0.022147,9.761509
11.344986,-0.015563,0.038458,9.947665
11.354899,0.090983,-0.059109,9.748190
11.365193,-0.016760,-0.012420,9.775276
11.374132,-0.029480,0.028283,9.818223
11.394620,0.040553,0.024990,9.852342
11.405030,0.011523,0.042499,9.753877
11.414999,0.055218,0.046689,9.746544
11.424987,0.055518,-0.021249,9.923871
11.435047,-0.009727,-0.076767,9.802810
11.445116,-0.035914,-0.034268,9.736668
11.470855,-0.043247,-0.022746,9.710480
11.484895,-0.050579,0.102356,9.858926
11.496220,0.075420,0.091432,9.784404
11.504938,0.079460,0.028582,9.729784
11.514981,-0.012869,0.053273,9.848451
11.536487,0.050430,0.015713,9.794131
11.545035,0.081106,-0.011672,9.840670
11.554874,-0.019304,-0.022297,9.809993
11.564882,-0.061204,0.048185,9.803558
11.575001,0.031275,0.057463,9.805803
11.584890,0.105498,0.029629,9.765549
11.608480,-0.064795,0.078263,9.801613
11.615013,0.022596,0.045342,9.749537
11.624885,0.096370,-0.001496,9.814782
11.634859,-0.002544,-0.008979,9.833487
11.644840,-0.048185,0.030527,9.785003
11.654904,0.024541,0.022147,9.827501
11.666734,0.090684,-0.005836,9.838126
11.674092,0.016760,0.021698,9.765399
11.684813,-0.064795,0.087391,9.774827
11.695475,0.023045,0.089636,9.789941
11.704901,0.084997,0.060605,9.765848
11.714989,0.010026,0.055069,9.804606
11.725067,-0.043396,0.057313,9.792036
11.742406,0.076916,0.000000,9.812687
11.754942,0.026786,-0.016461,9.790539
11.764980,-0.023793,0.048484,9.824209
11.774874,0.005088,0.059408,9.806701
11.784937,0.105498,0.007781,9.793682
11.795602,0.053871,0.048484,9.779017
11.813059,0.007333,0.042648,9.759863
11.824219,0.043995,0.010774,9.774378
11.835208,0.026786,0.010625,9.812836
11.844919,0.000000,0.061054,9.821665
11.854929,0.005088,0.011672,9.799817
11.865028,0.024541,-0.034867,9.821964
11.883302,0.040254,0.055667,9.787547
11.896163,0.051178,0.051178,9.796525
11.904847,0.002993,0.032024,9.793083
11.914962,0.002993,0.070931,9.800416
11.925031,0.058810,0.066741,9.801164
11.935024,0.077964,0.036962,9.793981
11.955359,-0.042499,0.021698,9.821516
11.965162,0.034119,0.035765,9.787547
11.974158,0.105349,0.020651,9.814333
11.985042,0.052674,0.038758,9.807000
11.995891,-0.033520,0.094125,9.772732
12.004997,0.007183,0.092330,9.793383
12.030582,-0.023045,0.067938,9.818672
12.045109,0.000748,0.052525,9.799817
12.055099,0.038159,0.007931,9.802361
12.065157,0.034418,0.011373,9.815829
12.074093,0.018556,0.050729,9.800117
12.090105,0.004938,0.033969,9.783806
12.105037,-0.018256,0.027684,9.768542
12.115012,0.031874,0.065544,9.806402
12.124053,0.070482,0.008829,9.834684
12.134842,-0.013019,-0.023644,9.775276
12.144936,-0.052375,0.017658,9.801014
12.164597,0.092330,-0.009128,9.813285
12.174235,0.016012,-0.002843,9.804756
12.184814,-0.041900,0.059109,9.782758
12.195556,0.030826,0.056116,9.796376
12.204612,0.099812,0.023943,9.791288
12.215244,0.036663,0.016760,9.787846
12.235433,0.000898,0.047886,9.779915
12.245153,0.035465,-0.045192,9.809544
12.255090,0.010924,0.010026,9.816727
12.265160,0.006435,0.047437,9.808197
12.274181,0.051776,0.027235,9.803708
12.285014,0.004340,-0.002993,9.797273
12.308374,0.098016,0.005836,9.785302
12.324107,-0.008530,-0.011373,9.756720
12.334932,-0.035465,0.046389,9.802212
12.344989,0.020351,0.048335,9.798022
12.355265,0.082154,-0.017359,9.831691
12.375849,0.024242,0.050729,9.792634
12.395508,0.066591,-0.007183,9.805204
12.404963,0.040703,0.016760,9.801314
12.414927,0.042499,0.084997,9.781262
12.424100,0.046389,0.048335,9.804606
12.445820,0.035914,0.065993,9.807150
12.465074,0.103254,0.024093,9.801164
12.474104,0.031724,0.036214,9.799817
12.484857,-0.034418,0.083800,9.804905
12.495184,0.007333,0.053273,9.787696
12.512206,0.043546,0.039206,9.810741
12.524232,0.019304,0.074672,9.801314
12.534884,0.027085,0.066741,9.804307
12.545643,-0.029031,0.063000,9.817475
12.565044,0.079760,0.036513,9.802062
12.581374,0.011971,0.023344,9.801014
12.595058,0.010325,0.087391,9.789941
12.604909,0.090534,0.048933,9.804157
12.614927,0.040553,0.058660,9.783656
12.634872,-0.012271,0.036663,9.814482
12.656777,-0.004938,0.054320,9.801912
12.664901,0.037560,0.085147,9.809245
12.674960,0.080059,0.037261,9.793532
12.684981,0.017359,0.040553,9.794131
12.694832,-0.042349,0.088589,9.786050
12.704945,0.021698,0.076168,9.773480
12.726133,0.033370,0.025739,9.797273
12.734964,-0.021100,0.064047,9.810592
12.745411,-0.013169,0.037560,9.805953
12.754938,-0.016461,0.018256,9.805803
12.764961,0.004340,0.056864,9.796675
12.774082,0.052974,0.068686,9.796076
12.788608,0.089038,0.040853,9.789642
12.794732,0.013767,0.053273,9.791587
12.804891,-0.038907,0.089038,9.779616
12.814873,0.018256,0.059558,9.793233
12.824067,0.087391,0.008380,9.790091
12.834818,0.040853,0.019005,9.801314
12.845376,-0.035765,0.066890,9.803109
12.859548,-0.009577,0.033370,9.808946
12.864604,0.020651,0.020052,9.786050
12.874255,0.017059,0.045791,9.799817
12.884874,0.036064,0.098016,9.831991
12.895030,0.061204,0.047886,9.794131
12.904992,0.006435,0.040703,9.785152
12.915039,-0.027983,0.091881,9.803558
12.934841,0.068836,0.011672,9.792186
12.946456,0.028133,0.024242,9.800715
12.955106,-0.017808,0.073774,9.817475
12.964891,-0.019154,0.037560,9.792186
12.974164,0.028881,0.027684,9.782459
12.984993,0.040853,0.068836,9.807150
13.007480,0.054021,0.040104,9.783057
13.015199,0.004489,0.039356,9.793682
13.024261,-0.019304,0.072278,9.789791
13.035008,0.020052,0.064945,9.799219
13.045774,0.077066,0.024691,9.800715
13.054881,0.028582,0.035166,9.809993
13.078610,-0.020052,0.070332,9.795029
13.084810,0.030976,0.021399,9.781711
13.095158,0.033370,0.057613,9.801463
13.104969,0.030976,0.068686,9.797423
13.115005,0.051328,0.020651,9.796974
13.125122,-0.005986,0.021549,9.801164
13.149450,0.020800,0.052525,9.811789
13.154793,0.070332,0.024841,9.817176
13.164948,0.021698,0.018256,9.794580
13.174320,-0.035465,0.059857,9.800266
13.184834,0.015413,0.055518,9.798022
13.194915,0.020052,0.044145,9.792186
13.215467,0.038159,0.082004,9.789941
13.225042,0.046389,0.055069,9.797722
13.234973,-0.011822,0.011971,9.798321
13.245540,-0.039057,0.058061,9.781112
13.255178,0.023644,0.052824,9.800715
13.264877,0.104900,0.017808,9.815380
13.286838,-0.039206,0.081106,9.794131
13.294816,-0.007931,0.052525,9.796525
13.304889,0.046838,0.047138,9.791886
13.314855,0.041002,0.048335,9.791437
13.324176,0.037560,0.086194,9.805953
13.334969,0.016311,0.027085,9.819121
13.357435,-0.039655,0.053572,9.808796
13.364971,0.023793,0.060456,9.798171
13.374892,0.086494,0.038608,9.774977
13.384983,0.022297,0.047586,9.790390
13.394829,-0.025439,0.090983,9.801014
13.404827,-0.002544,0.071978,9.769140
13.422950,0.036663,0.045192,9.786948
13.434815,0.031275,0.060156,9.828998
13.445690,0.010774,0.032173,9.801613
13.454847,-0.014216,0.034568,9.816727
13.464886,-0.054320,0.065544,9.806851
13.474194,0.021399,0.082004,9.799817
13.498311,0.037111,0.042349,9.782758
13.504797,-0.016311,0.100261,9.786649
13.514837,-0.007482,0.075719,9.783656
13.524191,0.018107,0.011523,9.798321
13.534829,0.035316,0.041601,9.785452
13.544864,0.026936,0.059259,9.807449
13.569029,-0.013917,0.009577,9.785003
13.574297,-0.043995,0.054470,9.785901
13.584225,0.019454,0.075570,9.792335
13.595634,0.092928,0.028731,9.797124
13.604889,0.053273,0.053273,9.800715
13.614838,-0.017957,0.093676,9.784105
13.633966,0.022446,0.021698,9.787846
13.644822,0.005836,0.030826,9.808347
13.654826,0.017808,0.065693,9.808048
13.664859,0.020351,0.033819,9.811190
13.674956,0.005986,0.039805,9.799518
13.684868,-0.035166,0.071230,9.786948
13.709527,0.044294,0.061952,9.810592
13.724827,-0.007632,0.068836,9.805504
13.734879,-0.012720,0.044294,9.805504
13.744932,0.031724,0.023195,9.796824
13.754877,-0.000150,0.050729,9.775874
13.776733,0.049382,0.046240,9.800266
13.784807,0.011223,0.055069,9.785302
13.795497,-0.038758,0.084249,9.777969
13.804875,0.008530,0.084698,9.771684
13.814883,0.067190,0.029629,9.767045
13.824828,0.045940,0.035465,9.790689
13.840410,0.005686,0.027235,9.785152
13.854820,-0.013019,0.023195,9.788893
13.864918,-0.011223,0.061803,9.776772
13.874830,0.024841,0.071230,9.818672
13.884886,0.078114,0.044893,9.801912
13.895668,0.013767,0.038009,9.795029
13.915960,-0.011822,0.073026,9.805953
13.924909,0.046389,0.043546,9.800566
13.934864,0.030228,0.034418,9.812387
13.944900,0.017808,0.078563,9.800715
13.955089,0.014515,0.037261,9.793682
13.964974,-0.023344,0.015713,9.787846
13.985702,0.037411,0.077515,9.800715
13.996398,0.080358,0.043546,9.793233
14.004898,0.031425,0.050879,9.793383
14.014877,-0.030378,0.062700,9.799967
14.024345,-0.005537,0.049831,9.799668
14.034858,0.030976,0.054620,9.783506
14.059013,0.045342,0.038608,9.813435
14.074318,0.005686,0.041002,9.799219
14.085068,-0.057762,0.069135,9.811340
14.095901,0.008230,0.076617,9.785003
14.104935,0.079909,0.037111,9.785302
14.129464,-0.007033,0.045940,9.783506
14.144826,-0.001197,0.028133,9.775276
14.154875,-0.004340,0.067938,9.805354
14.164857,0.036962,0.074073,9.835732
14.174374,0.072128,0.014665,9.780214
14.196283,-0.037860,0.071829,9.819271
14.204931,0.002544,0.075270,9.814333
14.214829,0.038458,0.023045,9.759414
14.224250,0.052824,0.076019,9.796974
14.234866,0.020202,0.081555,9.836480
14.245143,0.014066,0.037111,9.780064
14.267147,0.020800,0.079610,9.791437
14.284805,0.064795,0.016012,9.779466
14.295598,0.039805,0.040254,9.799368
14.304837,-0.003741,0.093377,9.816128
14.314901,-0.002544,0.054620,9.777820
14.331600,-0.019903,0.061952,9.797573
14.344820,0.024841,0.051028,9.790988
14.354826,0.061354,0.021698,9.772582
14.364862,0.008679,0.020351,9.797872
14.374831,-0.044743,0.064496,9.817176
14.384888,-0.002993,0.046090,9.759713
14.406269,0.037560,0.080358,9.804157
14.424828,0.025140,0.051328,9.752979
14.434835,0.004789,0.034568,9.805204
14.444823,-0.029629,0.074971,9.800266
14.454928,0.018107,0.056266,9.768542
14.473194,0.052824,0.045043,9.825706
14.484816,-0.023195,0.073175,9.804756
14.495828,-0.001945,0.054320,9.794580
14.514877,-0.002394,0.057613,9.791737
14.524407,0.036663,0.067938,9.791437
14.548051,-0.045192,0.050729,9.800117
14.564830,-0.016910,0.057313,9.791437
14.574303,0.036663,0.028133,9.811340
14.584912,0.038009,0.106995,9.768392
14.594913,0.032473,0.071380,9.806102
14.613657,0.005088,0.033221,9.806851
14.624273,-0.036812,0.072427,9.798620
14.634868,0.062401,0.026487,9.772582
14.645618,0.032622,0.038009,9.806252
14.654836,-0.012570,0.042349,9.797423
14.664897,-0.002694,0.021848,9.808497
14.684329,-0.015264,0.067040,9.759863
14.694811,0.033969,0.069734,9.782608
14.704822,0.062551,0.045641,9.806102
14.714845,0.027534,0.059857,9.797124
14.724893,-0.020800,0.057613,9.769589
14.734918,-0.019454,0.064945,9.804606
14.756573,-0.005088,0.037560,9.782459
14.764844,0.051328,0.060456,9.836629
14.774810,0.065095,0.047886,9.808347
14.784680,0.011223,0.013468,9.767494
14.794821,-0.047287,0.052974,9.827651
14.804882,-0.027085,0.060755,9.812238
14.824742,0.010924,0.065843,9.797573
14.834824,0.033370,0.075570,9.819570
14.845675,0.062102,0.048933,9.804456
14.854877,-0.000449,0.021549,9.793981
14.864855,-0.060905,0.064945,9.794729
14.874932,-0.020351,0.050579,9.796675
14.902252,0.006734,0.052525,9.786948
14.904257,0.049532,0.077665,9.829297
14.914820,0.055218,0.043247,9.799817
14.924209,-0.000898,0.023344,9.785003
14.934826,-0.035914,0.078413,9.802212
14.944975,-0.021698,0.047736,9.793532
14.962028,0.024541,0.010325,9.768243
14.964290,0.007033,0.043845,9.795927
14.974290,0.042349,0.063748,9.815979
14.984815,0.055966,0.033520,9.781112
14.996120,0.010625,0.034418,9.802810
15.004875,-0.040404,0.080658,9.810442
15.014974,-0.014964,0.048784,9.800416
15.033538,0.018556,0.065843,9.798620
15.044950,0.037710,0.054320,9.830045
15.054755,0.071230,0.019903,9.805055
15.064895,0.003891,0.021399,9.784254
15.074281,-0.055966,0.068836,9.813584
15.084954,-0.019753,0.071829,9.778718
15.103404,0.002843,0.046539,9.777072
15.114935,0.035316,0.090235,9.799817
15.124860,0.060905,0.046988,9.780214
15.134871,0.049382,0.039955,9.768692
15.144928,-0.038608,0.067339,9.805504
15.155049,-0.031275,0.030078,9.798022
15.180027,-0.023793,0.071230,9.781112
15.184609,0.034268,0.074971,9.796076
15.194843,0.076468,0.030378,9.790839
15.204888,0.049681,0.037111,9.809993
15.214926,-0.017808,0.075570,9.818074
15.224931,-0.017658,0.044594,9.795927
15.244824,-0.031724,0.072876,9.783357
15.254833,0.026487,0.078114,9.831841
15.264835,0.061204,0.027534,9.796376
15.274864,0.035465,0.056715,9.804606
15.284684,0.014815,0.086643,9.792485
15.294924,0.026636,0.042349,9.814782
15.313594,-0.045043,0.058510,9.781112
15.324846,0.012570,0.079760,9.814632
15.334862,0.038608,0.027385,9.749238
15.346412,0.049083,0.062700,9.793832
15.354950,0.033370,0.058810,9.842316
15.365043,0.047287,0.046838,9.820468
15.383667,-0.051477,0.079011,9.789043
15.394804,-0.010176,0.087242,9.802960
15.404861,0.058660,0.029629,9.778418
15.414879,0.025589,0.060605,9.770038
15.424321,0.040254,0.086643,9.803259
15.434943,0.061354,0.048185,9.811340
15.459415,-0.055966,0.072876,9.792335
15.464718,-0.011672,0.046539,9.812986
15.474823,-0.017808,0.039506,9.767794
15.484868,-0.026188,0.067190,9.776772
15.494797,0.038608,0.073475,9.792634
15.504821,0.089038,0.032323,9.804905
15.514270,0.041152,0.048784,9.785601
15.524778,-0.010475,0.055817,9.805953
15.534789,-0.013618,0.049831,9.804007
15.545215,-0.034717,0.020501,9.789492
15.554787,-0.034418,0.061803,9.820169
15.564795,-0.003591,0.055368,9.798471
15.574243,0.079610,0.034717,9.804606
15.584335,0.050579,0.049083,9.806402
15.594780,0.020800,0.068088,9.804157
15.604346,0.035166,0.058211,9.806102
15.614803,0.011373,0.034867,9.771086
15.624204,-0.053423,0.108940,9.761209
15.634781,0.000150,0.070781,9.791138
15.645149,0.027983,0.040404,9.775425
15.654089,0.031425,0.033520,9.794729
15.664823,0.030228,0.070183,9.808197
15.674788,0.052824,0.042798,9.794729
15.684805,-0.003741,0.027235,9.791737
15.694789,-0.040254,0.067938,9.805204
15.704811,-0.022147,0.053423,9.807599
15.714860,0.029180,0.040104,9.778867
15.724151,0.004639,0.047736,9.788145
15.734809,0.046988,0.078563,9.798171
15.745333,0.082154,0.051328,9.797722
15.754845,0.022446,0.043396,9.801463
15.764807,-0.044294,0.100261,9.803558
15.774235,-0.025140,0.062850,9.785003
15.784871,-0.007482,0.019603,9.774977
15.794361,-0.008530,0.069434,9.794131
15.804788,0.027235,0.073325,9.802511
15.814866,0.079311,0.023943,9.810592
15.824793,0.054021,0.055518,9.796974
15.834795,0.014665,0.084997,9.816278
15.844328,0.005238,0.040404,9.811190
15.854860,-0.033670,0.040104,9.794131
15.864669,-0.042499,0.052974,9.786050
15.874791,0.004938,0.064646,9.792186
15.884823,0.051178,0.017508,9.786798
15.894817,0.051178,0.043546,9.797423
15.904833,0.027834,0.087691,9.783806
15.914810,0.051926,0.045791,9.779915
15.924878,0.008230,0.033221,9.786349
15.937353,-0.035914,0.074223,9.786948
15.945666,-0.019304,0.053123,9.776922
15.954823,0.018855,0.054021,9.804606
15.964816,0.010924,0.062251,9.780962
15.974803,0.044743,0.071080,9.792036
15.984848,0.073924,0.037860,9.797124
15.994847,0.029629,0.034119,9.801314
16.008208,-0.023195,0.062401,9.769140
16.024282,0.003741,0.031874,9.800266
16.034802,-0.014366,0.066741,9.777520
16.045323,0.031874,0.071080,9.798321
16.054877,0.074522,0.035166,9.796675
16.064901,0.033670,0.044294,9.817625
16.074676,-0.002544,0.076617,9.819869
16.084857,0.007781,0.045342,9.780364
16.094888,-0.022446,0.048185,9.784105
16.104823,-0.037860,0.081256,9.793083
16.114836,0.028582,0.046090,9.772433
16.124821,0.072128,0.027085,9.801164
16.134898,0.038009,0.048335,9.794879
16.144756,0.024392,0.104900,9.787846
16.154819,0.039955,0.050579,9.791587
16.164817,-0.017508,0.032473,9.816278
16.174822,-0.071080,0.063598,9.791737
16.184875,-0.026936,0.065394,9.777969
16.194832,0.012869,0.027235,9.790539
16.205008,0.005537,0.062551,9.789941
16.221130,0.089636,0.025589,9.807449
16.234775,0.012420,0.060905,9.804606
16.246516,-0.011672,0.039506,9.797573
16.264861,-0.032622,0.026786,9.769589
16.274563,-0.034717,0.067040,9.778568
16.290435,0.082753,0.034418,9.791288
16.304854,0.049831,0.045940,9.790689
16.314911,0.008081,0.080957,9.804307
16.324460,0.010176,0.041750,9.790689
16.334850,-0.020501,0.041002,9.809694
16.346689,-0.017508,0.054320,9.761359
16.362801,0.033221,0.030976,9.792186
16.374482,0.030527,0.056565,9.818523
16.384959,0.032772,0.056116,9.808197
16.395073,0.061503,0.031724,9.781860
16.404927,-0.005836,0.030228,9.805354
16.414873,-0.046988,0.084548,9.798171
16.431371,0.030228,0.019603,9.787696
16.446715,0.025290,0.083501,9.802511
16.464857,0.060456,0.008530,9.793083
16.474456,0.019154,0.042349,9.791437
16.484855,-0.024990,0.075869,9.781112
16.506637,-0.004789,0.064945,9.782459
16.524395,0.016461,0.089486,9.787547
16.534996,0.088738,0.025439,9.807748
16.546051,-0.008081,0.072128,9.790988
16.564884,-0.013618,0.022895,9.785452
16.581704,-0.046090,0.077066,9.765100
16.594891,0.067190,0.038159,9.785003
16.604832,0.044444,0.051178,9.798471
16.614902,0.017658,0.089337,9.780064
16.634848,0.002095,0.044444,9.783656
16.652101,-0.069734,0.057014,9.794281
16.664812,0.033969,0.036064,9.771984
16.674403,0.013169,0.063000,9.789791
16.684854,0.032173,0.080957,9.773181
16.694856,0.059708,0.036962,9.794131
16.704852,0.029330,0.034119,9.805204
16.723228,-0.014665,0.062850,9.799518
16.724556,-0.020202,0.054171,9.774378
16.734793,0.010026,0.027534,9.783357
16.746306,-0.007931,0.053123,9.780064
16.754865,0.022147,0.080658,9.805653
16.764853,0.057164,0.049382,9.805055
16.774908,0.034568,0.042050,9.795029
16.799209,0.001796,0.054171,9.802062
16.804772,-0.025888,0.025589,9.790091
16.814836,-0.043247,0.064496,9.794729
16.824392,0.004190,0.069285,9.797273
16.834855,0.064795,0.025290,9.780064
16.844870,0.029180,0.030677,9.808646
16.862543,0.017957,0.066591,9.811041
16.864289,0.028881,0.036962,9.798471
16.874943,-0.009278,0.020351,9.786499
16.884852,-0.053722,0.062700,9.798620
16.896170,0.013318,0.048784,9.807000
16.904835,0.034268,0.019304,9.788893
16.914911,0.051776,0.058061,9.794131
16.933803,0.043845,0.028432,9.794879
16.944895,0.004789,0.019454,9.778269
16.954857,-0.045342,0.077964,9.805953
16.964870,0.012570,0.053273,9.816128
16.974422,0.051328,0.034568,9.789642
16.984838,0.046539,0.064795,9.786948
17.003630,0.017209,0.037411,9.793832
17.014876,-0.021399,0.023045,9.768243
17.024662,-0.045940,0.063598,9.766746
17.034971,0.027085,0.068985,9.799668
17.044834,0.060755,0.037710,9.787397
17.054851,0.032173,0.010475,9.769589
17.079586,-0.002993,0.046689,9.809544
17.084823,-0.041601,0.035914,9.754027
17.094943,-0.037111,0.048933,9.779466
17.104852,0.010325,0.062551,9.785152
17.114863,0.069734,0.034717,9.784853
17.124432,0.046389,0.040254,9.792485
17.139338,-0.001646,0.084099,9.817475
17.144803,-0.006135,0.037710,9.791886
17.154902,-0.018406,0.021399,9.782159
17.164861,-0.013318,0.084099,9.783207
17.174593,0.027983,0.089187,9.789791
17.184989,0.068985,0.015862,9.800117
17.195025,0.037411,0.043546,9.785452
17.211352,-0.023943,0.070931,9.811938
17.214427,-0.009428,0.056266,9.786499
17.224509,-0.013618,0.020202,9.771984
17.234852,-0.011822,0.053123,9.774228
17.246138,0.049532,0.050130,9.778418
17.254870,0.089786,0.036214,9.795627
17.264855,0.040853,0.027834,9.794131
17.283891,-0.009876,0.026188,9.776024
17.295089,-0.008380,0.029929,9.789043
17.304846,-0.005986,0.055368,9.795478
17.314920,0.026786,0.070931,9.774228
17.324514,0.084249,0.045192,9.762107
17.334816,0.034568,0.046838,9.788145
17.356686,-0.009428,0.061653,9.776772
17.364766,-0.011523,0.022147,9.804007
17.374446,-0.017658,0.048335,9.766896
17.384854,0.028881,0.066591,9.811190
17.394912,0.048933,0.030976,9.783357
17.404841,0.034867,0.036214,9.812387
17.420804,-0.020501,0.057762,9.766297
17.434884,0.001347,0.032024,9.774977
17.446448,-0.013468,0.066741,9.793083
17.454869,0.033520,0.086045,9.802960
17.464948,0.086045,0.041750,9.781411
17.474534,0.029929,0.012869,9.786050
17.496785,-0.020351,0.049681,9.776323
17.504761,0.005537,0.032473,9.768841
17.514850,-0.003143,0.066142,9.798321
17.524460,0.019005,0.064346,9.751333
17.534853,0.070781,0.039655,9.766746
17.544838,0.021399,0.034268,9.785452
17.561685,-0.021848,0.063598,9.765100
17.574995,0.014366,0.016311,9.776922
17.584857,0.004040,0.073774,9.803858
17.596093,0.048185,0.063299,9.810592
17.604824,0.071829,0.023793,9.795029
17.614912,0.013767,0.051776,9.803409
17.637611,-0.003442,0.046090,9.788744
17.644951,0.035316,0.020501,9.780214
17.654850,-0.001197,0.061204,9.763903
17.664944,0.043396,0.097866,9.797573
17.674466,0.070631,0.027235,9.804456
17.684846,-0.001197,0.014366,9.795478
17.702861,-0.041152,0.052674,9.804905
17.714918,0.030677,0.038159,9.755822
17.724484,0.007033,0.066292,9.791138
17.734855,0.039206,0.067040,9.787247
17.745150,0.048933,0.049681,9.786499
17.754903,0.014066,0.043097,9.792335
17.772627,-0.012121,0.054769,9.783806
17.784912,0.013468,0.042499,9.784554
17.796334,0.015114,0.050729,9.798022
17.804876,0.022895,0.073026,9.803558
17.814856,0.054919,0.036363,9.779616
17.824553,-0.013169,0.031126,9.793532
17.848201,-0.011822,0.056864,9.761808
17.855052,0.036064,0.028582,9.783357
17.864817,0.018256,0.046090,9.806402
17.874855,0.044743,0.077365,9.798171
17.884861,0.079909,0.041301,9.793832
17.894927,0.000150,0.046539,9.813285
17.913448,-0.019005,0.065394,9.791138
17.925089,0.028582,0.034717,9.774528
17.934917,0.026636,0.053273,9.804905
17.946217,0.042948,0.084698,9.799219
17.954885,0.058959,0.040853,9.801763
17.964847,-0.000299,0.016311,9.807898
17.982813,-0.020501,0.035316,9.779017
17.995138,0.029180,0.005238,9.764651
18.004844,0.031425,0.072278,9.788594
18.014914,0.021549,0.080807,9.798770
18.024843,0.053572,0.055817,9.803259
18.034979,-0.001347,0.027385,9.789791
18.060147,0.042798,0.022446,9.779017
18.074498,0.009278,0.040104,9.805354
18.084817,0.038758,0.084997,9.813285
18.094848,0.063000,0.012121,9.791138
18.104891,0.004789,0.039356,9.784703
18.123340,-0.009278,0.068088,9.795328
18.134845,0.019304,0.031126,9.784404
18.145871,0.017059,0.046539,9.785601
18.154886,0.037411,0.074821,9.812238
18.164845,0.082453,0.042648,9.800266
18.174845,-0.004040,0.026038,9.817026
18.199768,0.053572,0.036812,9.771834
18.214807,0.017808,0.047138,9.774228
18.224522,0.036663,0.089187,9.810741
18.234843,0.084848,0.038758,9.804157
18.245047,0.010625,0.036214,9.795328
18.260323,-0.042948,0.057164,9.773330
18.274880,0.009128,-0.011822,9.777072
18.284907,0.019903,0.053722,9.791587
18.296072,0.030078,0.076318,9.799518
18.304922,0.065843,0.047437,9.797872
18.314852,0.026337,0.048185,9.810143
18.329688,-0.030677,0.054620,9.776473
18.344979,0.024691,0.023644,9.770338
18.354851,0.007333,0.036812,9.790988
18.364932,0.038608,0.069883,9.785901
18.374519,0.063299,0.029779,9.796376
18.384923,0.011074,0.036962,9.794729
18.400499,-0.003741,0.068237,9.793233
18.414926,0.045791,0.032173,9.768991
18.424847,0.018107,0.061952,9.798919
18.434860,0.034717,0.080209,9.797423
18.444904,0.053871,0.033221,9.788295
18.454846,0.009278,0.011074,9.793383
18.470618,-0.021249,0.049681,9.801763
18.484830,0.042050,0.021549,9.765399
18.496436,0.027983,0.061803,9.804905
18.515202,0.003143,0.041900,9.793832
18.535070,-0.016012,0.071679,9.788444
18.551965,0.050729,0.052375,9.772882
18.565025,0.033670,0.034418,9.780513
18.574746,0.048335,0.026337,9.796675
18.584835,-0.002245,0.025589,9.802511
18.596267,-0.053273,0.054470,9.776772
18.604811,-0.019005,0.061653,9.785452
18.621412,0.018107,0.010475,9.791587
18.624465,0.024990,0.055667,9.777820
18.634991,0.037860,0.073175,9.798471
18.645130,0.060306,0.024990,9.810442
18.654825,0.000150,0.030527,9.778568
18.664911,-0.065244,0.073624,9.779466
18.674595,-0.003591,0.060007,9.784853
18.691949,0.020501,0.015413,9.761359
18.694299,-0.001347,0.081256,9.793383
18.704782,0.042648,0.050579,9.782608
18.714859,0.074971,0.026636,9.813136
18.724607,0.040254,0.048933,9.794729
18.734914,-0.015264,0.080807,9.788444
18.745042,-0.013767,0.042199,9.775874
18.764130,-0.026038,0.056715,9.779017
18.774802,0.015563,0.085446,9.794580
18.784847,0.079610,0.028731,9.800566
18.796288,0.046689,0.037710,9.784853
18.804808,-0.001347,0.079011,9.793532
18.814848,-0.009128,0.050729,9.795478
18.831934,-0.009128,0.014515,9.784404
18.834404,-0.045342,0.063449,9.771684
18.844993,0.014366,0.051926,9.794879
18.854816,0.053273,0.039206,9.778568
18.864911,0.028283,0.052824,9.802511
18.874548,0.021399,0.070183,9.796525
18.884913,0.040254,0.035765,9.785003
18.902345,-0.021399,0.034867,9.788295
18.904351,-0.063449,0.061054,9.756570
18.914841,0.000599,0.043845,9.785302
18.924560,0.030976,0.031275,9.778269
18.934836,0.024242,0.060156,9.783506
18.944897,0.023344,0.054470,9.796824
18.954891,0.056864,0.019454,9.804756
18.978671,-0.058810,0.077964,9.786948
18.984693,-0.023943,0.056266,9.763604
18.995078,0.004190,0.038608,9.793832
19.004821,-0.003591,0.048185,9.781411
19.014944,0.033819,0.080358,9.803708
19.024559,0.087391,0.063299,9.783207
19.043108,-0.028133,0.075570,9.801912
19.054882,-0.010325,0.035914,9.808197
19.064853,-0.010625,0.010625,9.765998
19.074564,-0.041900,0.064795,9.788594
19.084832,0.027834,0.074223,9.794729
19.095051,0.065693,0.026188,9.803858
19.114644,0.008230,0.072427,9.767195
19.124625,0.013917,0.038009,9.785751
19.134822,-0.005088,0.002993,9.785302
19.144866,-0.048933,0.063748,9.779017
19.154819,0.002095,0.086643,9.785751
19.164836,0.042050,0.014366,9.784254
19.182856,0.042050,0.076767,9.783057
19.194983,0.026786,0.034119,9.804756
19.204846,-0.022147,0.030677,9.785003
19.214958,-0.057463,0.081855,9.774977
19.224844,0.003442,0.060755,9.795328
19.234850,0.045940,0.019005,9.771235
19.258490,0.046090,0.067190,9.824957
19.264723,0.066292,0.031425,9.799817
19.274802,-0.007482,0.020950,9.794729
19.284853,-0.049681,0.070631,9.795777
19.294898,-0.026936,0.038159,9.762556
19.304813,0.019454,0.035765,9.778568
19.326569,0.029480,0.064047,9.779616
19.334858,0.071230,0.043845,9.792934
19.344892,0.026786,0.038309,9.788744
19.354526,-0.017508,0.083351,9.781112
19.364805,0.005686,0.028133,9.793682
19.374562,-0.012271,0.024841,9.790091
19.389102,-0.029180,0.046838,9.775276
19.394799,0.018406,0.066441,9.780663
19.404832,0.083201,0.039655,9.781711
19.414856,0.036812,0.053871,9.803858
19.424578,-0.017059,0.093228,9.800865
19.434843,0.008380,0.033520,9.782758
19.444913,-0.007482,0.042948,9.785452
19.461269,-0.037261,0.056715,9.778119
19.464393,0.020052,0.078563,9.766447
19.474630,0.046838,0.030228,9.789642
19.484816,0.028432,0.060905,9.769889
19.494918,0.031575,0.060605,9.799069
19.504838,0.046988,0.037261,9.809245
19.515017,-0.011822,0.015413,9.771086
19.531373,-0.012271,0.045940,9.787696
19.545004,0.044294,0.037411,9.765848
19.554859,0.027684,0.065693,9.798022
19.564873,0.061653,0.049532,9.810741
19.574599,0.070931,0.037261,9.793083
19.584846,0.009727,0.051627,9.798620
19.603706,-0.016910,0.050879,9.778119
19.615107,-0.004340,0.037111,9.785751
19.624598,-0.018855,0.076617,9.794430
19.634833,0.030826,0.069285,9.811789
19.644970,0.082453,0.040404,9.765998
19.654896,0.017359,0.052525,9.778269
19.675646,0.004789,0.045342,9.783656
19.685118,-0.001945,0.017957,9.779616
19.695155,-0.057613,0.061952,9.792784
19.704977,0.002394,0.062850,9.798471
19.714988,0.049981,0.032473,9.780214
19.724695,0.041750,0.065095,9.762407
19.746348,0.061054,0.038159,9.804157
19.754838,0.003891,0.030078,9.754625
19.764839,-0.033071,0.046539,9.784105
19.774651,-0.021249,0.053273,9.788145
19.784826,0.028731,0.033819,9.775725
19.794930,-0.017359,0.046838,9.783806
19.811214,0.083201,0.025739,9.796675
19.824908,0.031874,0.036363,9.800566
19.834800,-0.019454,0.077365,9.791288
19.844931,0.009727,0.034268,9.802212
19.854910,-0.009278,0.042499,9.798770
19.864999,-0.052974,0.073475,9.780513
19.881730,0.055518,0.028133,9.799967
19.895095,0.017658,0.068088,9.784554
19.904758,0.024392,0.086344,9.775575
19.914846,0.025140,0.048185,9.804456
19.924640,-0.003741,0.026636,9.775725
19.934929,-0.047736,0.064346,9.780663
19.952063,0.052225,0.025439,9.794430
19.964910,0.006734,0.060007,9.774378
19.974842,0.032772,0.054171,9.774378
19.984808,0.064346,0.031126,9.802511
19.994930,0.012570,0.031126,9.798022
20.004982,-0.052076,0.069584,9.807599
20.022569,0.010774,0.040703,9.768841
20.034910,-0.024541,0.052674,9.785152
20.045206,0.017808,0.063299,9.782159
20.054911,0.074073,0.061952,9.786948
20.064838,0.033969,0.048335,9.783057
20.074826,0.014515,0.088888,9.790390
20.092730,-0.004190,0.036962,9.770787
20.104934,-0.059109,0.077066,9.768542
20.115003,-0.008679,0.057463,9.793233
20.124700,0.037411,0.017359,9.777969
20.134808,0.021549,0.061653,9.784254
20.145232,0.034418,0.071978,9.797273
20.164578,0.019753,0.038159,9.799219
20.174694,-0.024392,0.062401,9.798770
20.184884,0.005238,0.035316,9.770487
20.194972,-0.012720,0.029779,9.783955
20.204839,-0.037860,0.064945,9.797423
20.214871,0.010475,0.067938,9.762706
20.232968,0.018406,0.056116,9.807449
20.245105,0.043696,0.072278,9.782758
20.254909,0.048634,0.030378,9.786050
20.264852,0.006884,0.018256,9.801912
20.274639,-0.049233,0.068387,9.812537
20.284837,-0.035615,0.039206,9.787247
20.304335,-0.019753,0.067938,9.791737
20.315186,0.026936,0.068836,9.787547
20.324622,0.072278,0.027834,9.775425
20.334893,0.031126,0.036812,9.795178
20.344960,0.007333,0.070033,9.801912
20.354892,0.017957,0.034418,9.792186
20.377107,0.006135,0.052525,9.774079
20.394913,0.033071,0.024691,9.781262
20.404810,0.021549,0.056715,9.782608
20.414817,0.049681,0.075570,9.798321
20.424581,0.080508,0.031425,9.798022
20.436681,-0.037560,0.077066,9.793383
20.454959,-0.014964,0.018556,9.770338
20.464897,-0.011822,0.018556,9.770338
20.474647,-0.022596,0.065244,9.768542
20.484801,0.011971,0.064945,9.774079
20.495019,0.068237,0.044145,9.799368
20.510462,0.024541,0.075121,9.799967
20.524852,-0.014964,0.027534,9.780962
20.534819,-0.039805,0.065843,9.801463
20.544896,-0.004938,0.061204,9.802361
20.554837,0.024841,0.032323,9.788893
20.564909,0.000150,0.047736,9.779167
20.579556,0.049382,0.074073,9.795178
20.584708,0.060156,0.054021,9.787098
20.595023,0.030677,0.038458,9.802361
20.604850,-0.031275,0.065693,9.804905
20.614841,0.005686,0.047287,9.788744
20.624709,-0.017957,0.027834,9.776024
20.634903,-0.018406,0.053871,9.784254
20.650891,0.020501,0.071529,9.784703
20.654383,0.054171,0.023195,9.804756
20.665103,0.045043,0.052076,9.795328
20.674836,0.023943,0.090833,9.807748
20.684807,0.057164,0.030228,9.797124
20.694956,-0.008230,0.021100,9.801763
20.704803,-0.035465,0.065693,9.768542
20.720621,-0.026786,0.077665,9.782758
20.724452,0.023793,0.020501,9.758965
20.734977,-0.021848,0.073624,9.777820
20.745128,0.015413,0.056715,9.805504
20.754895,0.094724,0.022895,9.782309
20.765013,0.058211,0.050430,9.810442
20.774983,0.018705,0.075869,9.829896
20.796703,0.000000,0.027235,9.783656
20.804708,-0.060306,0.055368,9.789791
20.814834,-0.036064,0.054919,9.792634
20.824741,0.017508,0.033670,9.763304
20.834843,-0.008979,0.048634,9.781711
20.844435,0.047736,0.065693,9.797872
20.860811,0.080059,0.016161,9.780663
20.864453,0.021698,0.050879,9.792485
20.874748,-0.013767,0.068686,9.801912
20.884730,0.005088,0.031724,9.776772
20.894959,0.009577,0.012121,9.765100
20.904792,-0.059558,0.074672,9.776174
20.914891,0.005088,0.058660,9.768692
20.932671,0.033969,0.049831,9.768991
20.934172,0.029180,0.061054,9.775725
20.944998,0.017957,0.081406,9.809394
20.954835,0.060905,0.015563,9.802810
20.964844,0.018705,0.042798,9.803858
20.974685,-0.019603,0.092180,9.788295
20.985106,-0.001945,0.058660,9.791737
21.001695,-0.025439,0.013019,9.778418
21.004305,-0.033670,0.067639,9.747143
21.014904,-0.001347,0.060605,9.794729
21.024695,0.039805,0.020800,9.772732
21.034844,0.035465,0.058361,9.789043
21.044940,0.038758,0.076767,9.787098
21.054767,0.054171,0.050579,9.810891
21.072634,-0.039206,0.068387,9.781711
21.084910,-0.022746,0.025589,9.792485
21.095149,-0.012570,0.022895,9.741008
21.104801,-0.040254,0.062551,9.758965
21.114895,0.020052,0.073175,9.820318
21.124988,0.074821,0.044145,9.776473
21.148967,0.004938,0.083351,9.798321
21.154726,0.027385,0.045342,9.806701
21.164836,-0.001796,0.023195,9.801164
21.174717,-0.038309,0.067040,9.751632
21.184812,-0.021698,0.038458,9.777820
21.195208,0.013917,0.033071,9.771984
21.214819,0.027834,0.085446,9.801912
21.224944,0.069584,0.028582,9.801463
21.234836,0.042499,0.038009,9.774228
21.244940,0.009577,0.092629,9.807898
21.254774,0.005088,0.047287,9.824658
21.264902,0.002245,0.027235,9.780813
21.283602,0.000748,0.073624,9.780364
21.294965,0.027534,0.024093,9.791138
21.304822,0.032772,0.052225,9.794879
21.314845,0.044145,0.092030,9.798022
21.324706,0.067788,0.037860,9.801463
21.334754,0.015713,0.053871,9.797124
21.354307,0.000599,0.054021,9.773480
21.364950,-0.019005,0.030527,9.782908
21.374710,-0.026337,0.049233,9.765998
21.384556,0.002095,0.069734,9.784554
21.394975,0.054470,0.033819,9.799219
21.404896,0.025140,0.053871,9.794430
21.430362,0.047287,0.050430,9.818523
21.434600,-0.001945,0.038309,9.803708
21.445033,-0.028432,0.061354,9.779616
21.454835,-0.018256,0.037710,9.782608
21.464850,0.009727,0.028731,9.774378
21.474723,-0.014515,0.064496,9.786349
21.499960,0.036663,0.039805,9.796226
21.514795,0.002394,0.058510,9.781112
21.524657,0.028133,0.013917,9.785003
21.534844,-0.003143,0.030826,9.788444
21.544911,-0.058211,0.045043,9.773480
21.560334,0.011373,0.023344,9.792634
21.574933,-0.012121,0.057463,9.785601
21.584850,0.038907,0.092779,9.788893
21.594831,0.100111,0.023195,9.804756
21.604769,0.027983,0.058959,9.813734
21.614835,-0.001197,0.073325,9.806252
21.630040,-0.011822,0.027534,9.768093
21.645059,-0.051926,0.056864,9.795927
21.654836,-0.027085,0.056864,9.770936
21.664845,0.026636,0.032323,9.769140
21.674731,0.021249,0.059408,9.787098
21.684930,0.048035,0.069135,9.794580
21.705921,0.052076,0.038907,9.798620
21.714947,-0.005986,0.079460,9.793532
21.724836,0.020651,0.031126,9.792186
21.734846,-0.023344,0.031275,9.809993
21.744831,-0.077814,0.058810,9.785302
21.754835,0.004040,0.053273,9.761808
21.770733,0.016311,0.049382,9.797273
21.784917,0.041601,0.074971,9.809843
21.794831,0.083201,0.019903,9.801912
21.804821,0.050130,0.036962,9.794131
21.814835,0.000150,0.073475,9.812387
21.824868,0.011822,0.041750,9.772433
21.846342,-0.065993,0.084698,9.786798
21.854937,0.007333,0.069883,9.782908
21.864798,0.030078,0.018406,9.783057
21.874837,0.009727,0.058660,9.782908
21.884464,0.055667,0.082453,9.794580
21.894824,0.072128,0.041301,9.824957
21.911457,-0.016012,0.089935,9.808048
21.924837,-0.014066,0.034268,9.786050
21.934913,-0.024990,0.027385,9.795777
21.944989,-0.043247,0.060456,9.782758
21.954916,-0.010325,0.068088,9.775276
21.964834,0.035166,0.032921,9.781561
21.981220,0.046240,0.074373,9.787846
21.994899,0.071230,0.040853,9.780663
22.004901,0.021100,0.029929,9.782459
22.014855,-0.013169,0.092330,9.782010
22.024750,-0.009428,0.052375,9.790091
22.034885,-0.021998,0.031425,9.793981
22.052114,0.016910,0.054171,9.795627
22.064910,0.045791,0.039356,9.779316
22.074831,0.041451,0.043247,9.798919
22.084845,0.026636,0.082304,9.802661
22.094828,0.063898,0.047287,9.805653
22.104943,0.037111,0.026636,9.782459
22.122822,0.004938,0.062251,9.806851
22.134918,-0.019753,0.016760,9.773929
22.144829,-0.052225,0.057613,9.785452
22.154836,0.004938,0.071230,9.792036
22.164835,0.052974,0.037560,9.776473
22.174830,0.028432,0.046988,9.795029
22.196368,0.068985,0.038758,9.797423
22.204752,0.040553,0.040254,9.779167
22.214791,-0.034568,0.068536,9.799967
22.224743,0.003891,0.053423,9.804157
22.234838,-0.013618,0.008979,9.799967
22.244903,-0.037411,0.064496,9.779915
22.262252,0.045342,0.013019,9.792036
22.274829,0.048634,0.060007,9.785452
22.284819,0.020800,0.060156,9.786349
22.294826,0.061354,0.053123,9.796525
22.304926,0.002394,0.050430,9.783656
22.314830,-0.028881,0.057463,9.792934
22.331912,0.001048,0.014964,9.764202
22.344850,-0.021549,0.064945,9.801613
22.354859,0.008081,0.086194,9.780962
22.364828,0.050430,0.035765,9.780064
22.374822,0.043396,0.067489,9.798620
22.384786,0.034717,0.068686,9.794879
22.402069,0.020800,0.033221,9.791587
22.414910,-0.024691,0.064795,9.805803
22.424846,-0.008979,0.036663,9.791737
22.434844,-0.011373,0.014366,9.762556
22.444827,-0.042499,0.070033,9.773181
22.454887,-0.005387,0.057463,9.786349
22.473555,0.038309,0.064047,9.795178
22.484888,0.024392,0.053572,9.801613
22.494926,0.072427,0.041900,9.800416
22.504871,0.002993,0.035016,9.790839
22.514876,-0.023943,0.087990,9.806551
22.524841,-0.028432,0.048335,9.777072
22.542647,-0.049382,0.067788,9.776922
22.554917,0.060755,0.030677,9.762706
22.574829,0.035615,0.093078,9.801314
22.584841,0.065993,0.042349,9.794729
22.594824,0.028283,0.036513,9.781112
22.617231,0.000299,0.033819,9.786499
22.624832,-0.026786,0.027085,9.773181
22.634766,-0.046988,0.074821,9.777072
22.644788,-0.001796,0.060156,9.779616
22.654791,0.029480,0.023494,9.782459
22.664792,0.026337,0.048484,9.799817
22.674152,0.024990,0.067190,9.797273
22.684870,0.076318,0.037411,9.789193
22.694947,0.027834,0.036962,9.809544
22.704828,-0.041301,0.071230,9.805354
22.714846,0.010026,0.029629,9.782608
22.724801,-0.026936,0.009428,9.792934
22.734818,-0.051926,0.058810,9.772433
22.749195,-0.005986,0.073624,9.774528
22.754643,0.038907,0.040404,9.779765
22.764895,0.017508,0.090235,9.760760
22.774828,0.043845,0.078712,9.787996
22.784841,0.070332,0.043247,9.793832
22.794824,0.048634,0.044444,9.784853
22.804825,-0.007632,0.066591,9.791288
22.819596,-0.001796,0.053722,9.803409
22.824611,-0.009428,0.026936,9.773630
22.834892,-0.064945,0.065394,9.792335
22.844825,-0.020501,0.076019,9.791886
22.854891,0.024541,0.042648,9.776772
22.864881,-0.010774,0.058211,9.774228
22.874975,0.042948,0.064047,9.793682
22.890809,0.065095,0.041451,9.804606
22.894480,0.029779,0.050280,9.783207
22.904854,0.007482,0.067938,9.778119
22.914840,0.035316,0.031275,9.795478
22.924812,-0.009727,0.025140,9.778269
22.934830,-0.063748,0.061354,9.788295
22.944826,-0.009428,0.057313,9.782459
22.961676,0.017508,0.028133,9.784404
22.964729,-0.022746,0.062251,9.775126
22.974780,0.018705,0.067489,9.802361
22.984827,0.085446,0.020501,9.801912
22.994825,0.049681,0.030826,9.799069
23.004825,0.008530,0.078712,9.800865
23.014900,0.018556,0.039356,9.790240
23.031430,0.005088,0.034568,9.793682
23.034344,-0.064047,0.061054,9.792335
23.044906,-0.016161,0.057762,9.783207
23.054843,0.024990,0.025439,9.774977
23.064836,-0.004340,0.062700,9.766896
23.074896,0.043396,0.083501,9.780813
23.084887,0.075719,0.022147,9.802361
23.102208,0.002843,0.081705,9.806402
23.115083,0.005986,0.038758,9.783955
23.124827,-0.004938,0.040104,9.786798
23.134706,-0.058959,0.056266,9.760611
23.144826,-0.022446,0.050579,9.778119
23.154832,0.030527,0.012570,9.761808
23.171634,0.008081,0.049532,9.769889
23.174319,0.043247,0.078862,9.769889
23.184989,0.086943,0.037560,9.798919
23.194825,0.025439,0.031126,9.795777
23.204882,-0.010774,0.066890,9.810741
23.214897,0.001646,0.034119,9.784853
23.225136,-0.030826,0.014964,9.765250
23.242347,-0.009428,0.059109,9.796525
23.254886,0.013468,0.029330,9.773630
23.264882,0.019154,0.059708,9.773480
23.274907,0.037111,0.060605,9.775276
23.284845,0.071080,0.033520,9.796824
23.294823,0.035166,0.035166,9.803858
23.311736,0.014665,0.049233,9.799817
23.324913,0.005238,0.021698,9.791138
23.334834,-0.070033,0.069883,9.787397
23.344823,-0.012420,0.058061,9.785601
23.354826,0.013169,0.032772,9.767644
23.364827,-0.009727,0.047287,9.792784
23.386051,0.059558,0.033221,9.786349
23.394869,0.031425,0.057762,9.805204
23.404788,0.022895,0.068836,9.796076
23.414908,0.053423,0.047736,9.810442
23.424903,0.002694,0.020351,9.773630
23.434854,-0.028582,0.068686,9.800715
23.452373,-0.034867,0.006584,9.771086
23.464900,-0.027235,0.071380,9.785003
23.474826,0.005686,0.065693,9.804756
23.484918,0.044743,0.033370,9.771235
23.494922,0.027983,0.048784,9.797124
23.504827,0.037111,0.076168,9.799518
23.526552,0.039506,0.045192,9.793233
23.534977,0.017359,0.075420,9.808347
23.544791,0.019603,0.046389,9.798321
23.554785,0.014815,0.016461,9.767045
23.564825,-0.061803,0.073026,9.793383
23.574838,-0.023195,0.056266,9.764352
23.593044,-0.023045,0.076168,9.789492
23.604925,0.011672,0.082154,9.779167
23.614882,0.040104,0.027085,9.769589
23.624829,0.009876,0.057014,9.789642
23.634635,0.043845,0.060605,9.795478
23.644881,0.070183,0.028133,9.788444
23.670537,0.045940,0.038458,9.792186
23.684888,0.001796,0.017508,9.785302
23.694821,-0.033071,0.047736,9.789492
23.704885,0.007781,0.055218,9.787547
23.714829,-0.015862,0.014366,9.768542
23.736207,-0.014665,0.065843,9.780214
23.745150,0.029629,0.029779,9.778418
23.754794,-0.019454,0.064197,9.774977
23.764812,0.016760,0.065843,9.794879
23.774793,0.048933,0.036363,9.786649
23.784767,0.035465,0.051627,9.798919
23.794161,0.029929,0.070183,9.781860
23.804788,0.064047,0.049981,9.791437
23.814939,0.025888,0.055368,9.786050
23.824829,0.014366,0.065993,9.797722
23.834834,0.033819,0.033969,9.808197
23.844889,0.007632,0.011822,9.781112
23.854815,-0.032024,0.065693,9.774677
23.869400,-0.005088,0.035016,9.775126
23.884915,-0.058510,0.070781,9.782459
23.894823,0.011074,0.066591,9.773330
23.904881,0.015264,0.018406,9.787996
23.915000,-0.023494,0.060306,9.776922
23.925002,0.026188,0.089337,9.797722
23.944850,0.042948,0.057014,9.782908
23.954910,0.035914,0.073325,9.790839
23.964821,0.064945,0.028582,9.808347
23.974817,0.025140,0.037111,9.779017
23.984899,0.000000,0.096370,9.790539
23.994863,0.045791,0.022147,9.793981
24.011365,-0.029929,0.068088,9.789791
24.024919,-0.013318,0.021249,9.805953
24.034833,-0.011523,-0.000150,9.787696
24.044810,-0.042798,0.071380,9.761359
24.054812,-0.006884,0.059857,9.795777
24.064845,0.024541,0.007482,9.787996
24.080861,0.024990,0.058510,9.801763
24.094902,0.082154,0.023494,9.780064
24.104825,0.029629,0.039805,9.785452
24.114903,0.021998,0.083052,9.792186
24.125040,0.060306,0.028582,9.805055
24.134589,0.035914,0.043097,9.798321
24.156412,0.009876,0.051926,9.782608
24.164803,-0.004040,0.014366,9.790988
24.174832,-0.047287,0.080957,9.791587
24.184831,-0.029330,0.036513,9.799817
24.194824,-0.029929,0.037411,9.776024
24.204824,-0.032323,0.067938,9.771834
24.221479,0.020800,0.024841,9.776623
24.234912,0.008081,0.075869,9.795627
24.244820,0.045940,0.074672,9.803558
24.254692,0.067489,0.018855,9.785452
24.264823,0.020950,0.057164,9.796525
24.274908,0.017508,0.075869,9.805653
24.291546,0.025140,0.032173,9.771984
24.304905,-0.021249,0.043247,9.804905
24.314896,0.035465,0.022446,9.773779
24.324911,-0.002095,0.005238,9.781711
24.334960,-0.046988,0.043396,9.793083
24.344636,-0.032024,0.057613,9.772582
24.361254,-0.016161,0.051627,9.777969
24.374921,0.019005,0.064945,9.798171
24.384852,0.049233,0.023494,9.783357
24.394821,0.002544,0.070332,9.782758
24.404819,0.043097,0.088589,9.804606
24.414865,0.075570,0.020202,9.794131
24.432291,0.027834,0.079760,9.791886
24.444879,0.056715,0.038608,9.789043
24.454831,0.026636,0.045192,9.783806
24.464826,-0.040853,0.070332,9.783806
24.474907,0.006435,0.046539,9.805354
24.484887,-0.010325,0.018705,9.768692
24.508102,-0.017808,0.004040,9.769440
24.515218,-0.023045,0.067788,9.769290
24.524946,0.001496,0.088289,9.762706
24.544880,0.029180,0.066441,9.775126
24.564891,0.038009,0.074223,9.791288
24.588611,0.020351,0.071380,9.806701
24.594763,0.048185,0.028283,9.802212
24.604826,0.013618,0.038309,9.797273
24.614831,-0.029929,0.062102,9.797872
24.624954,-0.002694,0.052674,9.792784
24.634829,-0.003891,0.015862,9.776922
24.653203,-0.051776,0.067639,9.780064
24.654839,-0.028133,0.054320,9.799368
24.664957,0.005986,0.009128,9.746993
24.674822,-0.027085,0.060605,9.766297
24.684796,0.012570,0.049532,9.782010
24.694778,0.025290,0.013767,9.772732
24.704795,0.010026,0.049233,9.771235
24.717341,0.016760,0.077665,9.803858
24.724983,0.067938,0.030228,9.788893
24.734834,0.025739,0.052674,9.788744
24.744781,0.022596,0.074821,9.796675
24.754566,0.054470,0.046539,9.807449
24.764782,0.035765,0.030826,9.801014
24.774859,-0.018107,0.052076,9.785302
24.797488,0.012121,0.048185,9.772732
24.804879,-0.023644,0.049233,9.786948
24.814788,-0.020800,0.051627,9.772732
24.824786,-0.021698,0.032622,9.777820
24.834754,-0.048035,0.049681,9.792934
24.844784,0.007482,0.066292,9.792186
24.854183,0.033370,0.022446,9.772133
24.864794,-0.000898,0.069434,9.796226
24.874882,0.035166,0.085296,9.790390
24.884829,0.067339,0.029929,9.795328
24.894815,0.026636,0.048185,9.796974
24.904812,0.030378,0.079460,9.809993
24.914945,0.067489,0.044743,9.796675
24.929285,0.008081,0.044594,9.785302
24.934635,-0.017957,0.070781,9.802960
24.944913,0.016161,0.016311,9.790839
24.954818,-0.010026,0.028133,9.785152
24.965119,-0.066591,0.060306,9.772882
24.974913,-0.020351,0.027385,9.781711
24.984865,-0.011822,0.018406,9.779316
25.004997,0.006435,0.047437,9.780214
25.014973,0.029180,0.028582,9.772732
25.024835,-0.015114,0.062700,9.784554
25.034834,0.028432,0.067788,9.789941
25.044978,0.068836,0.043396,9.796974
25.054874,0.021100,0.054919,9.788744
25.074966,0.072577,0.038907,9.803858
25.084931,0.026487,0.040703,9.797273
25.094814,0.016760,0.068387,9.815231
25.104870,0.037111,0.048933,9.816428
25.114880,-0.007632,0.041301,9.790240
25.124921,-0.036513,0.070781,9.795927
25.144610,-0.013019,0.016461,9.785452
25.154922,-0.064795,0.075420,9.767195
25.164832,-0.006285,0.067639,9.795029
25.174894,0.021249,0.006135,9.768991
25.184858,-0.015264,0.062251,9.770338
25.195009,0.008829,0.059259,9.791138
25.211667,0.015264,0.049233,9.788295
25.224819,0.029929,0.066741,9.818972
25.234832,0.056415,0.044294,9.804905
25.244818,0.015114,0.049233,9.771684
25.254456,0.029929,0.088140,9.801014
25.264815,0.057463,0.042648,9.798022
25.280584,0.015264,0.034867,9.793832
25.284504,-0.027834,0.064945,9.780364
25.294843,0.007333,0.044594,9.805504
25.304721,-0.002095,0.018406,9.797573
25.314819,-0.044743,0.071380,9.765250
25.324817,-0.011971,0.042199,9.768392
25.334817,-0.023494,0.022596,9.782010
25.353079,0.000150,0.058660,9.755224
25.364897,0.026038,0.016012,9.766148
25.374825,-0.013468,0.071529,9.780064
25.384834,0.026038,0.048484,9.779316
25.394885,0.093377,0.022446,9.794729
25.404818,0.026188,0.051477,9.797722
25.424551,0.071230,0.035615,9.796076
25.435081,0.021549,0.055667,9.792186
25.444893,-0.010325,0.080508,9.811489
25.454814,0.011373,0.024242,9.774228
25.464885,0.006135,0.028731,9.765848
25.474894,-0.052974,0.078114,9.780364
25.496664,-0.009577,0.008829,9.768841
25.504844,-0.051328,0.077515,9.794281
25.515136,0.007333,0.065394,9.791437
25.524836,0.031425,0.008979,9.756870
25.534820,-0.027385,0.068536,9.755523
25.544812,0.008530,0.060456,9.790839
25.562525,0.024392,0.049083,9.785452
25.574908,0.012720,0.067040,9.808048
25.584827,0.059857,0.017658,9.782010
25.594812,0.024841,0.038907,9.788594
25.604810,0.028283,0.099363,9.801463
25.615001,0.058061,0.040104,9.818074
25.638095,-0.016461,0.065095,9.777072
25.644288,-0.008679,0.041152,9.803708
25.654810,-0.034268,0.026636,9.766896
25.664826,-0.064945,0.067788,9.755972
25.675028,-0.028283,0.046988,9.808646
25.684850,-0.002095,0.016311,9.777072
25.701895,0.027385,0.058660,9.799368
25.714838,0.039206,0.026038,9.765250
25.724860,0.012420,0.040703,9.782758
25.734835,0.049233,0.072278,9.798770
25.744818,0.073624,0.024990,9.802661
25.754892,0.028432,0.055218,9.789642
25.773170,0.065244,0.024990,9.796226
25.784915,0.008679,0.042050,9.796076
25.794815,-0.021100,0.075420,9.814482
25.804591,0.030976,0.026636,9.777371
25.814816,-0.013468,0.028133,9.790988
25.824933,-0.026487,0.082453,9.824059
25.843663,-0.026936,0.031126,9.757917
25.855142,-0.040553,0.077964,9.784254
25.864934,0.002993,0.066441,9.767794
25.874915,0.007781,0.016012,9.769889
25.884815,-0.024242,0.053871,9.789043
25.894920,0.029180,0.081256,9.781860
25.916437,0.044444,0.060007,9.789492
25.925083,0.029480,0.070332,9.800266
25.934851,0.064646,0.029929,9.808497
25.944776,0.041002,0.051328,9.788594
25.954779,0.011523,0.065693,9.791138
25.964777,0.006884,0.038009,9.786349
25.974168,0.002843,0.016610,9.791288
25.984815,-0.042948,0.072278,9.753727
25.994912,-0.001048,0.037860,9.772582
26.004888,-0.015563,0.036064,9.775126
26.014828,-0.054320,0.044145,9.758965
26.024824,-0.004489,0.027983,9.790240
26.034918,0.020800,0.035166,9.807748
26.049988,0.004938,0.050879,9.777670
26.064878,0.045043,0.029779,9.784404
26.074873,0.007183,0.063299,9.809095
26.084831,0.033819,0.079161,9.791138
26.094855,0.068985,0.035016,9.796675
26.104920,0.032173,0.059857,9.803409
26.124978,0.062102,0.043097,9.807299
26.134927,0.022446,0.030228,9.796376
26.144811,-0.013169,0.074971,9.819421
26.154861,0.024392,0.036812,9.777969
26.164821,0.003891,0.045791,9.779316
26.174887,-0.033370,0.089636,9.795478
26.194895,-0.038159,0.020651,9.754176
26.204927,-0.040853,0.059708,9.784554
26.214854,-0.000599,0.055368,9.782010
26.224821,0.019154,0.002544,9.771235
26.234828,-0.019154,0.059558,9.772732
26.244888,-0.004789,0.061952,9.789043
26.263730,0.003292,0.063449,9.798022
26.275174,0.042948,0.082902,9.777371
26.284816,0.069734,0.021249,9.780513
26.294810,0.030976,0.049083,9.784703
26.304543,0.044294,0.094574,9.799817
26.314874,0.072726,0.024392,9.787397
26.335863,-0.010774,0.054919,9.789193
26.344992,0.012720,0.031275,9.786948
26.354808,-0.012420,0.020202,9.774378
26.364824,-0.027983,0.072128,9.793832
26.374821,-0.005836,0.054470,9.774677
26.384826,-0.027385,0.026188,9.784703
26.400994,-0.016461,0.047138,9.771385
26.414886,0.003591,0.022297,9.766896
26.424819,-0.032173,0.071380,9.773929
26.434528,0.007333,0.075719,9.803109
26.444802,0.041002,0.032921,9.781262
26.454948,0.000150,0.055518,9.789043
26.477210,0.026038,0.067190,9.790839
26.494772,0.027983,0.076916,9.803708
26.504942,0.069734,0.048784,9.809394
26.514962,0.029480,0.042199,9.782459
26.524877,-0.002245,0.070183,9.796974
26.540690,0.009128,0.030677,9.777520
26.554833,0.009428,0.058361,9.788893
26.574820,-0.070183,0.048634,9.769589
26.584846,-0.029180,0.057164,9.774827
26.594801,-0.010625,0.015862,9.772133
26.612404,-0.042798,0.065394,9.761658
26.614746,0.009128,0.055218,9.770787
26.624838,0.025140,0.040254,9.771535
26.634791,0.002095,0.062700,9.778418
26.644811,0.030677,0.079760,9.795328
26.654811,0.058660,0.041601,9.788145
26.664842,0.052225,0.065244,9.794580
26.681658,0.022746,0.081855,9.799817
26.684258,0.068985,0.029180,9.783656
26.694980,0.032323,0.039206,9.788893
26.704834,0.007333,0.077365,9.812537
26.714917,0.048634,0.020202,9.795029
26.724819,0.003292,0.017508,9.804905
26.734828,-0.025140,0.084099,9.808497
26.752359,0.020501,0.040404,9.804157
26.754171,-0.003292,0.009577,9.794879
26.764936,-0.019903,0.055518,9.792036
26.774816,-0.006584,0.043696,9.782459
26.784820,-0.025439,0.022895,9.777371
26.794808,-0.063149,0.043097,9.745796
26.804811,-0.016461,0.061653,9.763155
26.823282,0.033819,0.054021,9.778867
26.824093,-0.014066,0.054021,9.778867
26.835275,0.021399,0.060156,9.777969
26.844816,0.047736,0.054320,9.788444
26.854809,0.013169,0.058660,9.786200
26.864815,0.017209,0.075270,9.786499
26.874994,0.083201,0.031126,9.807299
26.893573,0.029779,0.086793,9.805803
26.904911,0.054470,0.042050,9.770188
26.914818,0.043845,0.032772,9.802960
26.924818,0.015114,0.084548,9.803708
26.934453,0.037710,0.030677,9.770787
26.944860,0.005088,0.016910,9.804756
26.970794,-0.001646,0.025140,9.807000
26.974407,-0.022746,0.023045,9.763155
26.984810,-0.058959,0.077665,9.772133
26.994808,-0.021549,0.067489,9.780962
27.004812,-0.018107,0.016910,9.760910
27.014811,-0.027534,0.053722,9.786050
27.040273,0.026337,0.033520,9.761359
27.044614,-0.007781,0.060456,9.763903
27.054775,0.017359,0.056864,9.797722
27.064868,0.067489,0.018705,9.786649
27.074815,0.041900,0.062551,9.774528
27.084809,0.030228,0.072128,9.809843
27.099877,0.071978,0.024691,9.801014
27.104609,0.035166,0.046838,9.792784
27.114899,0.020202,0.057613,9.813884
27.124804,0.045043,0.027983,9.778718
27.134818,0.017808,0.017808,9.793832
27.144806,-0.029929,0.082603,9.789642
27.154809,0.007183,0.032173,9.778718
27.170340,-0.014216,0.011223,9.775575
27.174257,-0.052076,0.081855,9.780364
27.184894,-0.015713,0.045641,9.779017
27.194807,-0.019304,0.024093,9.784254
27.204803,-0.053423,0.069734,9.783955
27.214804,0.003591,0.059109,9.781112
27.224817,0.023045,0.031275,9.785601
27.240312,-0.033221,0.054620,9.773779
27.244568,0.009876,0.083950,9.793083
27.254833,0.054171,0.036663,9.775276
27.264838,0.021100,0.067190,9.794131
27.274815,0.039655,0.080059,9.799219
27.284859,0.084099,0.041002,9.794580
27.294889,0.019903,0.039057,9.779167
27.310625,0.029330,0.062102,9.810143
27.314415,0.052974,0.064197,9.780663
27.324898,0.026337,0.062850,9.799967
27.334825,0.029929,0.075121,9.805354
27.344808,0.049831,0.024990,9.786798
27.354790,-0.001048,0.023943,9.795777
27.364890,-0.030677,0.061054,9.778718
27.380869,-0.003591,0.022446,9.768841
27.394885,-0.051627,0.065544,9.784105
27.404794,-0.033221,0.059109,9.771834
27.414815,-0.016910,0.008530,9.772133
27.424806,-0.041451,0.070482,9.785452
27.434288,-0.007781,0.046838,9.783357
27.450625,-0.017658,0.053423,9.782159
27.465164,0.028881,0.045791,9.790988
27.474818,0.052375,0.026487,9.774079
27.484818,0.014515,0.068836,9.777072
27.494868,0.038009,0.091731,9.805803
27.504809,0.055218,0.039206,9.800566
27.524986,0.036214,0.080508,9.823162
27.535134,0.060905,0.030677,9.801912
27.544765,0.019603,0.042050,9.795927
27.554591,-0.010325,0.056864,9.776473
27.564878,0.029180,0.030527,9.792784
27.574874,-0.002843,0.035615,9.804606
27.597938,-0.000299,0.046539,9.783207
27.604867,-0.007632,-0.005686,9.785302
27.614827,-0.049831,0.036064,9.793832
27.624814,-0.039955,0.056565,9.772582
27.634828,-0.002245,0.026038,9.764950
27.644803,-0.034119,0.071529,9.784105
27.662386,0.035316,0.021998,9.783057
27.674900,-0.012570,0.054021,9.789492
27.684816,0.019005,0.095023,9.795328
27.694804,0.065693,0.007183,9.792186
27.704807,0.024242,0.055817,9.795328
27.714999,0.030826,0.094275,9.805055
27.738306,0.017957,0.072876,9.812986
27.744864,0.027085,0.076019,9.781860
27.754815,0.069883,0.042798,9.774228
27.764885,0.020351,0.037560,9.789642
27.774899,-0.022446,0.077964,9.799668
27.784798,0.019005,0.034119,9.778119
27.802093,-0.042199,0.067339,9.779466
27.814899,-0.010625,0.043097,9.791437
27.824809,-0.012720,0.008081,9.743851
27.834823,-0.063000,0.075121,9.801912
27.844805,-0.021549,0.066142,9.799668
27.854797,-0.000299,0.010325,9.768093
27.873506,0.010325,0.079909,9.804007
27.884509,0.024392,0.022895,9.780813
27.894761,0.015563,0.044444,9.765399
27.904860,0.042798,0.070931,9.784853
27.914781,0.064496,0.041152,9.795328
27.924844,0.026636,0.039057,9.780962
27.940855,0.069883,0.038907,9.799518
27.954849,0.042199,0.041451,9.776922
27.964786,0.006584,0.074373,9.789193
27.974757,0.040254,0.059259,9.816877
27.984782,-0.001796,0.019903,9.784554
27.994861,-0.031575,0.063000,9.778119
28.013933,-0.011672,0.028582,9.794580
28.024921,-0.055518,0.059408,9.784254
28.034800,-0.027085,0.047138,9.775126
28.044797,-0.020501,0.025888,9.779616
28.054568,-0.042499,0.065394,9.779915
28.064884,0.000299,0.044743,9.772433
28.088052,0.010176,0.084249,9.770487
28.104764,0.030826,0.021399,9.779466
28.114784,0.005537,0.059857,9.793532
28.124766,0.040703,0.060306,9.788594
28.134767,0.058959,0.037860,9.785601
28.144271,0.034867,0.061653,9.806851
28.154776,0.019753,0.077365,9.795178
28.165029,0.082603,0.032473,9.795927
28.174815,0.030378,0.057313,9.792634
28.184826,0.020651,0.053871,9.795328
28.194792,0.036962,0.043247,9.796675
28.204791,0.015713,0.036363,9.790988
28.220338,0.026038,0.037860,9.795328
28.234863,-0.002993,0.020950,9.773480
28.244798,-0.035166,0.060306,9.787247
28.254795,0.005238,0.022147,9.795178
28.264803,-0.017508,0.035765,9.789492
28.274869,-0.056116,0.074821,9.756720
28.289952,-0.004938,0.018107,9.750884
28.304884,-0.046539,0.068237,9.785751
28.314870,-0.002095,0.032772,9.781411
28.324801,0.017209,0.013767,9.763753
28.334807,-0.014665,0.068836,9.752979
28.344876,0.009727,0.053423,9.813136
28.360214,-0.004489,0.052375,9.796076
28.374898,0.034119,0.055069,9.792036
28.384810,0.070332,0.036064,9.788145
28.394803,0.024841,0.048784,9.779915
28.404830,0.031126,0.072128,9.809694
28.414987,0.066741,0.026786,9.800566
28.431848,0.022596,0.070332,9.799518
28.444883,0.070631,0.040254,9.793383
28.454783,0.010625,0.047586,9.784554
28.464812,-0.029031,0.059259,9.799668
28.474800,0.009876,0.047138,9.807748
28.484807,-0.005387,0.027385,9.779017
28.500916,-0.003591,0.021399,9.777072
28.515281,-0.024990,0.034867,9.795777
28.524908,-0.073026,0.060755,9.795777
28.534954,-0.009727,0.030976,9.791288
28.544955,-0.037860,0.055368,9.770787
28.564936,-0.024541,0.058061,9.774528
28.586637,0.005986,0.077066,9.778867
28.604800,0.002245,0.059408,9.801164
28.614810,0.047886,0.078712,9.779466
28.624813,0.070332,0.015114,9.788145
28.634802,0.033819,0.054919,9.774378
28.651129,0.023943,0.072876,9.818822
28.664763,0.032323,0.039057,9.776323
28.674803,0.019454,0.086943,9.796076
28.684818,0.054470,0.049382,9.825107
28.694799,0.023644,0.030677,9.784254
28.704799,-0.007333,0.093078,9.797722
28.721620,0.049831,0.054620,9.801912
28.724276,0.001945,0.024841,9.771984
28.734756,-0.027085,0.061354,9.799518
28.744805,0.017957,0.027983,9.790390
28.754866,0.003891,0.030378,9.773779
28.764801,-0.054620,0.056116,9.801314
28.774785,-0.012720,0.028881,9.788145
28.792123,-0.022446,0.000150,9.762257
28.794247,-0.051926,0.055069,9.793981
28.804746,-0.021698,0.057463,9.790240
28.814780,-0.009428,0.011373,9.776323
28.824761,-0.048933,0.075719,9.779765
28.834775,0.001646,0.049831,9.796226
28.844756,0.020950,0.023943,9.770487
28.861360,-0.009577,0.083650,9.773779
28.864347,0.015563,0.062700,9.805354
28.874738,0.043546,0.016461,9.768542
28.884881,-0.007781,0.038159,9.773480
28.894769,0.034119,0.068686,9.796076
28.904761,0.058510,0.039206,9.771235
28.914818,0.035016,0.057313,9.776024
28.932470,0.040254,0.077066,9.798471
28.934144,0.072726,0.027534,9.800117
28.944753,0.023793,0.061204,9.800416
28.954814,0.020651,0.070332,9.792335
28.964812,0.072427,0.014066,9.807748
28.974812,0.034418,0.045791,9.782908
28.984814,0.002993,0.076318,9.786948
29.002960,0.006435,0.040104,9.800416
29.014776,-0.035316,0.070183,9.777969
29.024760,0.016910,0.031575,9.794580
29.034821,-0.000898,0.022446,9.787397
29.044795,-0.048484,0.063000,9.807449
29.054804,-0.000150,0.038907,9.785003
29.072934,-0.058061,0.057613,9.808796
29.084836,-0.016760,0.049981,9.783806
29.094794,-0.009278,-0.000150,9.759713
29.104588,-0.034119,0.067938,9.779616
29.114850,0.020651,0.059109,9.785601
29.124872,0.024392,0.042050,9.756421
29.143278,0.018556,0.063598,9.770787
29.154786,0.027834,0.022895,9.765699
29.164813,-0.008530,0.067339,9.768991
29.174796,0.035316,0.069584,9.815081
29.184814,0.080658,0.024691,9.774977
29.194791,0.023943,0.050280,9.759563
29.219043,0.061653,0.036812,9.794879
29.224722,0.034717,0.054021,9.788295
29.234770,0.021249,0.058061,9.792186
29.244760,0.072427,0.027085,9.822713
29.254751,0.038608,0.035615,9.802361
29.264805,-0.008829,0.066591,9.806551
29.280015,0.038608,0.021698,9.804307
29.284557,0.014815,0.019903,9.792485
29.294802,-0.026487,0.061204,9.794131
29.304764,0.026487,0.055667,9.781262
29.314814,-0.017808,0.033969,9.801613
29.324792,-0.035166,0.073026,9.785003
29.334796,-0.011223,0.032173,9.773929
29.350947,-0.076617,0.053572,9.790240
29.364906,-0.021848,0.044294,9.779017
29.374801,0.012271,0.036363,9.786499
29.384852,-0.034717,0.072577,9.783955
29.394800,0.014815,0.070781,9.751034
29.404856,0.023644,0.033520,9.773330
29.426193,0.018556,0.054470,9.786200
29.434929,0.048933,0.019753,9.777820
29.444798,0.012570,0.057164,9.809843
29.454796,0.035316,0.070482,9.821964
29.464804,0.061803,0.041152,9.784853
29.474790,0.025888,0.036363,9.792036
29.490946,0.066142,0.025888,9.804157
29.504878,0.030378,0.046090,9.789342
29.514818,-0.003143,0.083201,9.811938
29.524788,0.028731,0.042199,9.793233
29.534799,0.008979,0.010625,9.812387
29.544848,-0.021698,0.081256,9.808347
29.568216,-0.004489,0.023045,9.781711
29.574771,-0.051776,0.050579,9.809843
29.584872,-0.010475,0.039506,9.757618
29.594790,-0.018556,0.011822,9.786050
29.604521,-0.051328,0.047736,9.767644
29.614799,-0.008829,0.050430,9.779765
29.631610,-0.046090,0.068836,9.796525
29.644891,-0.001347,0.054171,9.793233
29.654803,0.024990,0.019603,9.784404
29.664798,-0.033520,0.043396,9.787098
29.674790,0.004190,0.059408,9.783506
29.684850,0.036513,0.044594,9.777221
29.707893,0.017957,0.065394,9.793682
29.714751,0.046689,0.029779,9.783806
29.724807,0.017209,0.046539,9.785452
29.734819,0.042948,0.067938,9.792485
29.744795,0.066591,0.022746,9.809843
29.754796,0.031575,0.054769,9.811789
29.771820,0.081106,0.051627,9.798471
29.784810,0.016461,0.065095,9.822413
29.794863,0.011822,0.064795,9.809843
29.804780,0.058061,0.037860,9.779915
29.814794,-0.005686,0.039655,9.800416
29.824801,-0.007482,0.076168,9.800266
29.841492,0.014366,0.018556,9.788594
29.854817,-0.041002,0.073774,9.797722
29.864814,0.016910,0.043546,9.768841
29.874894,-0.017957,0.029929,9.757618
29.884780,-0.044444,0.067489,9.780214
29.894796,-0.015862,0.045641,9.788744
29.914211,-0.065993,0.072128,9.774378
29.924938,-0.007333,0.041002,9.792335
29.934806,0.002993,0.006285,9.769140
29.944792,-0.055069,0.058061,9.764801
29.954924,-0.003143,0.054769,9.809694
29.964858,0.010475,0.022895,9.770487
29.989268,0.027684,0.029480,9.758217
30.004834,-0.033370,0.068985,9.781860
30.014905,0.020202,0.061054,9.804606
30.024791,0.046838,0.009727,9.786200
30.034850,0.011223,0.074522,9.790091
30.052444,0.066741,0.038309,9.766896
30.064860,0.040404,0.064197,9.798770
30.074795,0.034268,0.078413,9.814782
30.084795,0.071230,0.042948,9.814033
30.094784,0.026038,0.044294,9.786798
30.104799,0.024392,0.090085,9.778568
30.124080,0.025439,0.035316,9.787846
30.134841,0.010176,0.087242,9.799368
30.144758,0.035615,0.030228,9.785901
30.154859,0.014216,0.046389,9.790839
30.164800,-0.010625,0.072876,9.794131
30.174858,0.018705,0.044594,9.784703
30.192678,-0.040703,0.078114,9.795328
30.204800,0.011822,0.032772,9.784254
30.214773,0.001945,0.058660,9.784254
30.224799,-0.056266,0.061503,9.804905
30.234819,-0.006435,0.045342,9.787547
30.244788,0.009128,0.021100,9.743402
30.264139,-0.002544,0.040553,9.795627
30.274811,0.008679,0.020651,9.765848
30.284903,-0.002993,0.062551,9.794430
30.294789,0.008679,0.059259,9.791288
30.304762,0.040404,0.003891,9.779915
30.314853,-0.009278,0.070781,9.766447
30.340198,0.009727,0.058810,9.772433
30.354784,0.026636,0.070033,9.815530
30.364777,0.080059,0.018705,9.811639
30.374761,0.027235,0.063449,9.773181
30.384757,0.022895,0.090085,9.814632
30.396772,0.033670,0.037560,9.787996
30.414860,0.032323,0.074223,9.797273
30.424734,0.056715,0.026038,9.812238
30.434771,0.032622,0.029929,9.808497
30.444894,0.006584,0.079760,9.800566
30.454784,0.044893,0.032622,9.801613
30.469999,-0.014964,0.060905,9.767794
30.484851,0.016461,0.028133,9.788444
30.494751,-0.015713,0.017508,9.791737
30.504749,-0.058660,0.065843,9.779765
30.514800,-0.002993,0.043995,9.774079
30.524799,-0.032024,0.018256,9.764801
30.540245,-0.000150,0.042199,9.786499
30.554853,0.001796,0.012271,9.755972
30.564798,-0.020202,0.076318,9.775126
30.575030,0.005238,0.019603,9.776922
30.594886,-0.013019,0.059109,9.761958
30.610745,0.056864,0.017808,9.773031
30.624945,0.039506,0.081406,9.808946
30.634791,0.069883,0.030527,9.779915
30.644841,0.032173,0.049382,9.789642
30.654781,0.044294,0.070482,9.791737
30.664797,0.065993,0.045940,9.793682
30.680732,0.041601,0.045192,9.780813
30.694879,0.063898,0.027684,9.799219
30.704784,0.029629,0.043097,9.809843
30.714804,0.018855,0.089636,9.765399
30.724802,0.043845,0.046389,9.789342
30.734829,0.010625,0.037261,9.789043
30.750716,-0.037111,0.071978,9.779017
30.754359,0.019304,0.026038,9.779915
30.764924,0.014066,0.032024,9.812387
30.774796,-0.051477,0.083201,9.776174
30.784790,-0.014066,0.026188,9.790689
30.794793,-0.006884,0.038458,9.779765
30.804779,-0.043696,0.039955,9.818672
30.821526,-0.003741,0.008380,9.764950
30.824291,-0.035166,0.030228,9.785152
30.835057,-0.067489,0.064346,9.808048
30.844546,-0.004340,0.062551,9.774528
30.854816,0.011672,0.019005,9.756421
30.864855,-0.014366,0.057313,9.787397
30.874791,0.001048,0.067489,9.801463
30.895859,-0.027385,0.063898,9.778867
30.904886,0.012271,0.067190,9.814632
30.914805,0.049981,0.012570,9.766447
30.924792,0.001347,0.066142,9.758965
30.934797,0.017359,0.085895,9.814632
30.944845,0.046988,0.030378,9.792485
30.969186,0.026487,0.081256,9.808048
30.974624,0.083950,0.034717,9.797423
30.984792,0.038458,0.052674,9.786798
30.994791,0.015114,0.057313,9.814333
31.004776,0.064047,0.026337,9.816577
31.014801,0.021549,0.052225,9.801164
31.032684,0.025439,0.088289,9.809843
31.034219,0.065394,0.013618,9.792634
31.044917,0.027834,0.062102,9.774977
31.054869,0.004938,0.077515,9.799219
31.064892,0.026936,0.027085,9.784853
31.074874,0.021249,0.022446,9.816278
31.084842,-0.018855,0.035914,9.816278
31.109108,-0.007482,0.013019,9.783057
31.114635,-0.028432,0.057164,9.814333
31.124793,0.006884,0.043546,9.798171
31.134843,-0.008380,0.037560,9.780364
31.144790,-0.057762,0.073624,9.792784
31.154790,-0.009428,0.038309,9.797722
31.174634,-0.049681,0.066591,9.786948
31.184775,-0.013169,0.043696,9.791138
31.194788,-0.023644,0.000898,9.752829
31.204782,-0.048035,0.041601,9.783207
31.214785,-0.007183,0.050280,9.804157
31.224782,0.010475,0.016161,9.753129
31.244146,-0.004789,0.057313,9.786798
31.254757,0.014964,0.006135,9.775126
31.264763,-0.024990,0.039655,9.779466
31.274754,-0.006734,0.051328,9.779316
31.284806,0.018107,0.036363,9.770338
31.294856,-0.015264,0.065244,9.784703
31.315469,0.036064,-0.002544,9.766447
31.324824,-0.002843,0.064795,9.780663
31.334927,0.025140,0.082004,9.766896
31.344780,0.050430,0.038758,9.755673
31.354751,0.016760,0.065693,9.778568
31.364799,0.017808,0.084399,9.790091
31.387109,0.030826,0.065394,9.813285
31.394897,0.031874,0.064346,9.822413
31.404762,0.074672,0.023344,9.789642
31.414771,0.039057,0.039206,9.784554
31.424751,0.030677,0.082154,9.790988
31.434778,0.057014,0.060156,9.798919
31.450237,0.021399,0.047138,9.788594
31.454530,0.026487,0.078263,9.805055
31.464827,0.061803,0.024392,9.773630
31.474749,0.027534,0.058361,9.771235
31.484797,0.002245,0.065544,9.789043
31.494778,0.042948,0.047437,9.805803
31.504783,0.021249,0.037710,9.811190
31.521136,0.014216,0.026636,9.809843
31.534851,0.000449,0.020351,9.787397
31.544780,-0.035465,0.073475,9.761958
31.554730,0.010176,0.027385,9.791587
31.564808,-0.011223,0.025589,9.779915
31.574775,-0.037261,0.074672,9.769140
31.591234,-0.001646,0.014815,9.787547
31.604853,-0.053123,0.048035,9.782908
31.614880,-0.007033,0.055368,9.784703
31.624789,-0.023045,0.021399,9.771086
31.634780,-0.048335,0.052076,9.781711
31.644834,-0.004190,0.057313,9.770038
31.668089,-0.023494,0.060306,9.773330
31.674384,0.005836,0.086045,9.789193
31.684776,0.012420,0.024093,9.768692
31.694775,-0.006734,0.060456,9.797124
31.704762,0.033071,0.064795,9.800865
31.714785,0.056116,0.026337,9.780663
31.731890,0.027834,0.083052,9.796824
31.744909,0.061653,0.010774,9.791587
31.754785,0.018556,0.049532,9.774528
31.764802,0.034717,0.096220,9.811938
31.774789,0.069434,0.035765,9.788893
31.784785,0.018556,0.044893,9.787996
31.805089,0.057463,0.031275,9.801912
31.814954,0.033520,0.016311,9.796974
31.824848,0.013019,0.087391,9.803558
31.834794,0.055368,0.029180,9.798321
31.844776,0.016012,0.035316,9.798321
31.854810,-0.010176,0.074971,9.778718
31.876011,-0.002993,0.046240,9.802511
31.884959,-0.029330,0.061653,9.789043
31.894756,0.011523,0.017658,9.771385
31.904757,-0.001796,0.031874,9.768692
31.914794,-0.030228,0.072577,9.786349
31.924874,0.001496,0.028283,9.785152
31.941889,-0.036962,0.064945,9.787547
31.954821,-0.009577,0.025739,9.757468
31.964806,-0.017359,0.022596,9.749238
31.974785,-0.061803,0.067788,9.806851
31.984773,-0.016161,0.035316,9.797273
31.994809,-0.006135,0.013917,9.756421
32.014961,-0.006135,0.050130,9.778119
32.024925,0.042050,0.031724,9.786499
32.034792,-0.011523,0.073924,9.775874
32.044790,0.002843,0.073624,9.804007
32.054878,0.024990,0.021249,9.750734
32.064796,-0.025589,0.049083,9.768542
32.083778,0.048933,0.020950,9.786649
32.094931,0.009128,0.070033,9.786349
32.104784,0.025739,0.058810,9.797573
32.114861,0.070931,0.032323,9.796525
32.124884,0.024093,0.062551,9.798022
32.134814,0.048634,0.067639,9.803708
32.160085,0.032024,0.086344,9.810741
32.174779,0.060755,0.015114,9.800566
32.184799,0.004040,0.071829,9.809095
32.194781,0.020501,0.060306,9.811190
32.204782,0.070631,0.050579,9.798171
32.223081,0.012271,0.087691,9.801912
32.234790,0.049981,0.006734,9.810891
32.244789,0.012420,0.032323,9.795627
32.254734,-0.023344,0.072577,9.785452
32.264787,0.021249,0.030078,9.787098
32.274846,-0.018705,0.033670,9.776623
32.293450,0.004190,0.033520,9.795627
32.304835,-0.003292,0.012570,9.783656
32.314177,-0.025589,0.056116,9.792784
32.324920,-0.006584,0.053273,9.782608
32.334683,-0.014366,0.040104,9.786948
32.344896,-0.042948,0.084548,9.791288
32.366557,-0.049981,0.040553,9.767345
32.384734,-0.020202,0.045043,9.793083
32.394751,-0.001048,0.021399,9.756720
32.404790,-0.014066,0.050430,9.784254
32.414816,0.009727,0.041601,9.778269
32.433988,-0.026038,0.076168,9.783656
32.444806,0.012869,0.052974,9.782608
32.454753,0.046539,-0.000150,9.777969
32.464884,-0.000150,0.057313,9.778867
32.474786,0.026636,0.053273,9.806102
32.484783,0.045043,0.045791,9.774677
32.507998,0.061204,0.034717,9.785003
32.524749,0.024242,0.073624,9.817326
32.534547,0.032921,0.072577,9.805653
32.544784,0.068686,0.033071,9.798022
32.554749,0.033071,0.053423,9.797722
32.565410,0.076767,0.026936,9.788594
32.584797,0.020501,0.035615,9.800865
32.594881,0.020950,0.073325,9.799668
32.604871,0.068536,0.039356,9.788145
32.614817,0.015114,0.043845,9.812836
32.624845,0.021100,0.086194,9.803409
32.640994,0.024691,0.027235,9.793233
32.654808,0.015114,0.032173,9.802960
32.664792,-0.000299,0.018406,9.778269
32.684780,0.006734,0.020351,9.777221
32.694784,0.006435,0.017059,9.775276
32.713182,-0.042349,0.053273,9.790839
32.725143,0.005686,0.017209,9.776922
32.734803,-0.036363,0.051028,9.783057
32.754793,-0.005836,0.016012,9.760760
32.764870,-0.058959,0.075420,9.768991
32.782452,-0.015413,0.045940,9.783656
32.784136,-0.019903,0.021998,9.779466
32.794906,-0.037710,0.071230,9.783955
32.804791,-0.006135,0.045342,9.774677
32.814795,0.013019,0.016461,9.755972
32.824784,-0.015713,0.071529,9.782459
32.834800,0.019154,0.051477,9.786050
32.851533,0.032772,0.029031,9.785452
32.854244,-0.015413,0.052974,9.792485
32.864999,0.010475,0.056266,9.773630
32.874794,0.038159,0.036812,9.793532
32.884789,-0.013767,0.075270,9.777670
32.894784,0.008081,0.065843,9.780364
32.904812,0.047586,0.023943,9.772582
32.921906,0.004040,0.058061,9.800416
32.924235,0.032473,0.064197,9.778418
32.935130,0.094724,0.021100,9.787247
32.944787,0.024242,0.054470,9.785003
32.954774,0.023494,0.070631,9.791886
32.964794,0.077066,0.023195,9.786200
32.974796,0.028432,0.038309,9.795478
32.992918,0.018256,0.078862,9.814482
32.994166,0.060007,0.026487,9.811639
33.004799,0.024990,0.050879,9.786349
33.014793,0.022297,0.081855,9.800416
33.024807,0.073325,0.039805,9.794580
33.034798,0.026936,0.038159,9.783656
33.044782,0.015563,0.080658,9.789193
33.064778,0.030527,0.031275,9.781860
33.074937,-0.022297,0.054021,9.795328
33.084819,0.018256,0.033370,9.781411
33.094841,0.010475,0.025888,9.797124
33.104831,-0.030378,0.078563,9.773031
33.114844,0.010026,0.037860,9.779765
33.139455,-0.022746,0.056266,9.790240
33.144612,0.016012,0.021399,9.792036
33.155069,-0.017209,0.033670,9.779616
33.164804,-0.049083,0.046988,9.779167
33.174781,0.001347,0.032772,9.782010
33.184785,-0.009128,0.001048,9.769440
33.202943,-0.021998,0.047287,9.770787
33.214972,-0.012121,0.020800,9.790240
33.224785,-0.052974,0.066741,9.783806
33.234796,-0.003741,0.068985,9.787098
33.244785,0.025140,0.011074,9.743252
33.254784,-0.013767,0.074373,9.780813
33.274878,0.010176,0.035765,9.745048
33.284744,-0.031126,0.072726,9.768991
33.294722,0.010475,0.064197,9.795927
33.304751,0.036663,0.032772,9.761658
33.314792,-0.007482,0.060755,9.771684
33.324791,0.022746,0.068237,9.802212
33.343227,0.012121,0.052076,9.777072
33.354801,0.030527,0.055368,9.797573
33.364808,0.054769,0.029929,9.796675
33.374782,0.021399,0.051926,9.777072
33.384785,0.021399,0.073624,9.787996
33.394784,0.050579,0.029779,9.802062
33.414752,0.021399,0.081555,9.795328
33.424861,0.055069,0.048335,9.786349
33.434844,0.020651,0.040254,9.817026
33.444782,0.023494,0.087990,9.819570
33.454773,0.062850,0.035316,9.786798
33.464785,0.032024,0.034268,9.785751
33.485759,0.060007,0.025888,9.792485
33.495042,0.005387,0.024841,9.801463
33.504765,0.002694,0.080658,9.799668
33.514800,0.050280,0.038159,9.771235
33.524799,-0.003591,0.044444,9.759414
33.534782,-0.021249,0.076019,9.790091
33.554431,0.003292,0.011523,9.791587
33.564784,-0.031126,0.043097,9.805055
33.574784,0.019454,0.048035,9.795777
33.584792,0.004040,0.018256,9.783207
33.594784,-0.041900,0.055368,9.822413
33.604782,0.014366,0.028133,9.785751
33.633563,-0.005686,0.036214,9.782309
33.644813,-0.005686,0.023644,9.760162
33.654748,-0.052525,0.056565,9.770787
33.664891,0.001646,0.042948,9.791288
33.674794,0.003891,0.004789,9.774378
33.690612,-0.011223,0.058211,9.784105
33.704815,-0.005686,0.009876,9.770787
33.714793,-0.045491,0.060456,9.769440
33.724780,0.006135,0.049532,9.773929
33.734863,0.014815,0.030378,9.782908
33.744906,-0.018406,0.054021,9.769889
33.761240,0.034119,0.019005,9.774827
33.774871,-0.006135,0.079610,9.784105
33.784752,0.016461,0.072876,9.790390
33.794728,0.049681,0.020052,9.775425
33.804736,-0.019603,0.062401,9.784404
33.814731,0.026487,0.084848,9.782459
33.824218,0.047886,0.023943,9.775126
33.834751,0.031275,0.046240,9.807898
33.844792,0.052674,0.080807,9.794131
33.854729,0.061354,0.033071,9.799518
33.864773,0.036513,0.035316,9.781561
33.874715,0.035615,0.083501,9.820618
33.884728,0.072128,0.023943,9.791886
33.894348,0.026038,0.043396,9.774378
33.904807,0.019304,0.072577,9.783207
33.914782,0.065394,0.029629,9.809694
33.924731,0.033221,0.055069,9.768692
33.934732,0.011373,0.064795,9.801463
33.944731,0.075570,0.020501,9.807449
33.954801,0.013917,0.045192,9.797124
33.964308,0.004489,0.073026,9.812986
33.974722,0.055667,0.043696,9.779765
33.984858,0.027834,0.024990,9.796376
33.994719,-0.007482,0.080658,9.812238
34.004727,0.038907,0.028582,9.795178
34.014719,0.000748,0.022446,9.789642
34.024735,-0.036962,0.082603,9.779915
34.034363,0.026337,0.010774,9.785901
34.044709,-0.002843,0.017658,9.768991
34.054803,-0.056116,0.075719,9.787247
34.064784,0.013019,0.030826,9.803558
34.074735,-0.004190,0.027385,9.768991
34.084738,-0.074223,0.058510,9.783806
34.094734,-0.021100,0.023943,9.783955
34.108500,-0.014665,0.004789,9.791587
34.114732,-0.050729,0.049532,9.788594
34.124941,-0.019154,0.052824,9.790839
34.134798,0.009876,0.031425,9.753278
34.144848,-0.040553,0.070931,9.759414
34.154834,-0.001646,0.052974,9.776323
34.164859,0.020351,0.024392,9.775276
34.189883,0.023344,0.003442,9.775126
34.204790,-0.016311,0.070931,9.775126
34.214789,0.007632,0.046539,9.792485
34.224776,0.048634,0.025290,9.783207
34.234113,0.001646,0.080209,9.781411
34.252459,0.060605,0.022746,9.776922
34.264881,0.007333,0.065693,9.785003
34.274859,0.030378,0.088589,9.800416
34.284792,0.056864,0.042199,9.771235
34.294778,0.025589,0.048784,9.793832
34.304783,0.035765,0.085596,9.796076
34.325369,0.035765,0.059109,9.776174
34.335129,0.036363,0.092928,9.812088
34.344783,0.060156,0.037560,9.796076
34.354779,0.027235,0.055817,9.783656
34.364776,0.025140,0.076916,9.799518
34.374788,0.048185,0.031126,9.801014
34.395047,-0.011672,0.081855,9.809993
34.405013,0.027684,0.041002,9.800865
34.414793,-0.002245,0.042199,9.749986
34.424789,-0.022297,0.055518,9.775874
34.434792,0.030976,0.044444,9.799817
34.444774,0.024392,0.037411,9.800117
34.466542,-0.011672,0.034568,9.776772
34.484785,-0.060306,0.064795,9.769290
34.494835,-0.026487,0.048634,9.793981
34.504929,-0.014964,0.011822,9.790390
34.514840,-0.042499,0.057313,9.779765
34.540840,-0.008380,0.060456,9.787247
34.554745,0.024541,0.054919,9.762407
34.564798,0.040853,0.018855,9.757169
34.574776,-0.004938,0.071230,9.799817
34.584780,0.002843,0.071829,9.803858
34.604172,0.017658,0.057762,9.781860
34.614844,0.051776,0.078413,9.792634
34.624893,0.056415,0.041002,9.779167
34.634911,0.029031,0.059109,9.816727
34.644912,0.046988,0.087242,9.808796
34.654877,0.077515,0.034717,9.804905
34.680898,0.068237,0.020800,9.794879
34.694740,0.007632,0.081555,9.810442
34.704742,0.050430,0.043696,9.804456
34.714795,0.019903,0.042050,9.785751
34.734792,0.039955,0.017957,9.822563
34.752538,-0.007482,0.009428,9.767644
34.764741,0.019753,0.023644,9.804456
34.774751,-0.014964,0.014515,9.774378
34.784755,-0.037261,0.054769,9.789642
34.794778,-0.005836,0.020950,9.785152
34.804775,-0.014815,0.033969,9.788893
34.821180,-0.062700,0.058810,9.780663
34.834734,-0.003442,0.013618,9.765549
34.844778,-0.053572,0.052225,9.773929
34.854769,-0.011971,0.039057,9.781411
34.864785,0.001796,0.016610,9.801912
34.874775,-0.042050,0.050430,9.771385
34.891786,-0.011971,0.064496,9.783506
34.894349,0.010026,0.032772,9.786349
34.904777,-0.033819,0.092779,9.782908
34.914792,0.013618,0.058959,9.768093
34.924787,0.036663,0.017658,9.732628
34.934850,0.002245,0.052076,9.791437
34.944768,0.014066,0.074223,9.798471
34.962789,0.039655,0.021698,9.782459
34.964118,-0.015713,0.062251,9.795029
34.974769,0.016311,0.081256,9.802810
34.984789,0.058810,0.023494,9.777820
34.994779,0.010625,0.054021,9.793532
35.004776,0.033520,0.081106,9.807449
35.014792,0.086943,0.020800,9.767794
35.033069,0.040254,0.041601,9.759114
35.034079,0.040853,0.086194,9.802511
35.044778,0.074971,0.041301,9.814482
35.054780,0.021249,0.043696,9.779616
35.064790,0.029779,0.059109,9.769290
35.074772,0.068237,0.029031,9.820019
35.084847,0.022147,0.046838,9.798620
35.103771,0.046838,0.043696,9.812687
35.114813,0.008530,0.052824,9.802661
35.124795,0.023494,0.081106,9.770038
35.134833,0.041750,0.042349,9.801463
35.144801,0.006135,0.034268,9.792036
35.154805,-0.013169,0.059109,9.796226
35.174265,-0.018855,0.028432,9.795029
35.184419,-0.031126,0.052076,9.794879
35.194772,0.021698,0.015264,9.787547
35.204775,-0.000748,0.024841,9.778718
35.214789,-0.030378,0.060755,9.784404
35.224774,0.007333,0.016311,9.765998
35.244473,-0.053871,0.064047,9.786499
35.254777,-0.012720,0.027385,9.776024
35.264787,0.009727,-0.002843,9.762107
35.274769,-0.061054,0.066890,9.797423
35.284830,0.011223,0.041451,9.805953
35.294778,-0.002843,0.026038,9.764651
35.315171,0.008081,0.048634,9.783357
35.324732,0.010625,0.029031,9.774977
35.334844,-0.046240,0.060755,9.767644
35.344771,0.014964,0.058810,9.783656
35.354779,0.027534,0.018107,9.769589
35.364872,-0.005238,0.064945,9.775425
35.383684,0.031126,0.035765,9.778269
35.394756,-0.020202,0.061503,9.775874
35.404776,0.019454,0.075869,9.796675
35.414779,0.041002,0.029031,9.776623
35.424771,0.012720,0.056565,9.802960
35.434776,0.043247,0.068536,9.792335
35.459168,0.033819,0.056415,9.827352
35.464638,0.029779,0.084399,9.798471
35.474747,0.052824,0.019903,9.800715
35.484791,0.024841,0.031425,9.812537
35.494851,0.030527,0.072427,9.788444
35.504776,0.073774,0.050579,9.806252
35.523832,0.018256,0.092330,9.790988
35.534800,0.062251,0.037111,9.787098
35.544774,0.022297,0.034568,9.786649
35.554771,0.000000,0.067938,9.780364
35.564783,0.056565,0.030527,9.803858
35.574872,0.020950,0.033221,9.812387
35.600787,0.001496,0.027385,9.775874
35.614731,-0.044145,0.073026,9.810442
35.624772,0.020052,0.014216,9.795328
35.634787,-0.012570,0.033221,9.766297
35.644775,-0.048335,0.063898,9.808197
35.665724,0.014815,0.028731,9.737566
35.674868,-0.045791,0.062401,9.785601
35.684777,-0.001197,0.035914,9.817176
35.694879,-0.029031,0.007482,9.756870
35.704859,-0.054320,0.053572,9.777371
35.714778,0.007333,0.044444,9.797872
35.737358,-0.050430,0.068088,9.745796
35.744896,-0.012720,0.048484,9.781711
35.754743,0.003292,0.005387,9.780663
35.764755,-0.026487,0.076318,9.789642
35.774811,0.001646,0.032772,9.795627
35.784771,0.015264,0.005238,9.770787
35.807200,0.015264,0.051926,9.765699
35.814986,0.015114,0.030378,9.755373
35.824743,-0.003292,0.066591,9.769739
35.834752,0.010625,0.074373,9.775425
35.844379,0.027983,0.018556,9.757917
35.854770,-0.010176,0.058810,9.790240
35.870898,0.050280,0.010625,9.793233
35.884791,0.002245,0.063598,9.801912
35.894735,0.027684,0.062102,9.798919
35.904738,0.071380,0.007781,9.786050
35.914779,0.022895,0.085596,9.796675
35.924880,0.052674,0.082304,9.787996
35.941063,0.030976,0.072726,9.789642
35.954787,0.035465,0.081705,9.801613
35.964753,0.072278,0.021698,9.788893
35.974773,0.025589,0.039057,9.803558
35.984772,0.021399,0.086494,9.805055
35.994767,0.080807,0.028582,9.801014
36.013150,0.036812,0.078114,9.814632
36.024928,0.085895,0.060456,9.798471
36.034787,0.031275,0.023045,9.779466
36.044770,0.036363,0.079909,9.801463
36.054879,0.067938,0.031126,9.786948
36.064960,0.011223,0.037411,9.765250
