"Time (s)","Linear Acceleration x (m/s^2)","Linear Acceleration y (m/s^2)","Linear Acceleration z (m/s^2)","Absolute acceleration (m/s^2)"
8.879249999E-3,7.552590815E-2,8.451947400E-2,1.373662984E-1,1.780932459E-1
1.879525000E-2,1.317082402E-1,6.612978891E-2,1.384053487E-1,2.021787577E-1
2.871125000E-2,1.071364128E-1,7.772412320E-2,1.521696943E-1,2.016801084E-1
3.862825000E-2,1.055288670E-1,7.047829924E-2,1.476737702E-1,1.947076651E-1
4.854425000E-2,1.058748029E-1,7.732841288E-2,1.585951996E-1,2.057707333E-1
5.846125000E-2,1.060540566E-1,7.489527681E-2,1.373265374E-1,1.889850345E-1
6.837725000E-2,1.113956891E-1,8.518651340E-2,1.488280106E-1,2.044884308E-1
7.829325000E-2,1.075854789E-1,8.539678476E-2,1.477994853E-1,2.017719851E-1
8.821025000E-2,1.086990629E-1,7.397044829E-2,1.470457792E-1,1.972551005E-1
9.812625000E-2,1.097006361E-1,6.618778598E-2,1.498822635E-1,1.971794754E-1
1.080432500E-1,9.591990000E-2,8.240245303E-2,1.534648526E-1,1.988523383E-1
1.179592500E-1,8.899180826E-2,7.499109806E-2,1.390906423E-1,1.813543865E-1
1.278752500E-1,9.545630716E-2,7.688029689E-2,1.429737782E-1,1.883188464E-1
1.377922500E-1,1.087502078E-1,7.950481050E-2,1.540437269E-1,2.046389317E-1
1.477082500E-1,1.224406775E-1,7.610927755E-2,1.565831727E-1,2.128441486E-1
1.576252500E-1,1.173164701E-1,7.432924349E-2,1.490946436E-1,2.037577074E-1
1.675412500E-1,1.055981017E-1,7.068613578E-2,1.448998511E-1,1.927263753E-1
1.774572500E-1,9.360140590E-2,6.892104867E-2,1.405582935E-1,1.823950876E-1
1.873742500E-1,9.042645916E-2,7.589841234E-2,1.430959851E-1,1.855100387E-1
1.972902500E-1,9.955356080E-2,7.154403652E-2,1.508768749E-1,1.944049691E-1
2.072072500E-1,1.108326571E-1,6.974231752E-2,1.546167541E-1,2.026183836E-1
2.171232500E-1,1.184929664E-1,8.173729571E-2,1.492256212E-1,2.073399494E-1
2.270392500E-1,1.190526911E-1,7.783861899E-2,1.444250572E-1,2.027091291E-1
2.369562500E-1,1.067233618E-1,7.645911464E-2,1.387257761E-1,1.909992490E-1
2.468722500E-1,9.518413754E-2,7.105621428E-2,1.486023080E-1,1.902410355E-1
2.567892500E-1,1.026906651E-1,6.967306912E-2,1.471024972E-1,1.924548101E-1
2.667052500E-1,9.564497123E-2,7.879847598E-2,1.450004232E-1,1.907414036E-1
2.766212500E-1,9.616729204E-2,7.281622619E-2,1.568211544E-1,1.978464690E-1
2.865382500E-1,1.030563353E-1,6.803155926E-2,1.524743342E-1,1.962073493E-1
2.964542500E-1,1.089578022E-1,6.776842999E-2,1.491765046E-1,1.967688804E-1
3.063712500E-1,1.118540377E-1,6.825918954E-2,1.511201191E-1,2.000198318E-1
3.162872500E-1,1.130224393E-1,7.079340021E-2,1.496168000E-1,2.004269546E-1
3.262032500E-1,1.013066474E-1,6.827578101E-2,1.446764874E-1,1.893565555E-1
3.361202500E-1,1.072441660E-1,6.941216453E-2,1.476655841E-1,1.952549217E-1
3.460362500E-1,9.644695340E-2,6.671293447E-2,1.484105194E-1,1.891515601E-1
3.559522500E-1,9.357215155E-2,6.570626778E-2,1.511014080E-1,1.894853469E-1
3.658692500E-1,9.914283045E-2,6.800917539E-2,1.491496074E-1,1.915728430E-1
3.757852500E-1,1.027336239E-1,6.657436003E-2,1.446560222E-1,1.895038460E-1
3.857022500E-1,1.090578261E-1,7.233200365E-2,1.591705656E-1,2.060601785E-1
3.956182500E-1,1.064635627E-1,7.397779386E-2,1.650043327E-1,2.098419261E-1
4.055342500E-1,9.816144839E-2,6.940544480E-2,1.506266141E-1,1.927204260E-1
4.154512500E-1,9.486095097E-2,6.596002780E-2,1.414926785E-1,1.826732147E-1
4.253672500E-1,8.654935319E-2,6.223716041E-2,1.413412356E-1,1.770355884E-1
4.352842500E-1,8.803312071E-2,7.149783438E-2,1.446314639E-1,1.837934466E-1
4.452002500E-1,1.106786560E-1,6.761505478E-2,1.492694753E-1,1.977446252E-1
4.551162500E-1,1.108834365E-1,7.713362751E-2,1.537548745E-1,2.046589710E-1
4.650332500E-1,1.036160052E-1,6.643923910E-2,1.541957545E-1,1.972987069E-1
4.749492500E-1,1.038041942E-1,7.428776481E-2,1.537414259E-1,1.998259462E-1
4.848662500E-1,9.424196837E-2,7.338696926E-2,1.487993592E-1,1.908099713E-1
4.947822500E-1,9.416392632E-2,7.216388706E-2,1.474474829E-1,1.892491264E-1
5.046992500E-1,9.041549563E-2,7.024153269E-2,1.490882117E-1,1.879790670E-1
5.146152500E-1,9.764130201E-2,6.663754650E-2,1.481848168E-1,1.895603503E-1
5.245312500E-1,1.074358085E-1,6.648168623E-2,1.471352416E-1,1.939356772E-1
5.344482500E-1,1.053529937E-1,6.734636609E-2,1.474287719E-1,1.933132926E-1
5.443642500E-1,9.279960645E-2,7.290612713E-2,1.415920812E-1,1.843241378E-1
5.542812500E-1,9.892823763E-2,7.321320646E-2,1.486210191E-1,1.929641861E-1
5.641972500E-1,9.634504739E-2,7.612520208E-2,1.462189829E-1,1.909382244E-1
5.741132500E-1,9.770682737E-2,6.503324412E-2,1.459166819E-1,1.872635176E-1
5.840302500E-1,1.098170140E-1,7.005269046E-2,1.376779550E-1,1.895319902E-1
5.939462500E-1,9.918239051E-2,6.499585848E-2,1.499459982E-1,1.911685397E-1
6.038632500E-1,9.090063181E-2,7.229463172E-2,1.439578646E-1,1.849683904E-1
6.137792500E-1,8.538950315E-2,6.975720508E-2,1.467996114E-1,1.835961896E-1
6.236952500E-1,8.893488927E-2,6.939986254E-2,1.473948580E-1,1.856098047E-1
6.336122500E-1,1.009993397E-1,6.411090067E-2,1.446934444E-1,1.877425552E-1
6.435282500E-1,9.469885519E-2,6.192371311E-2,1.514230049E-1,1.890273679E-1
6.534452500E-1,1.019631984E-1,6.814479881E-2,1.559060651E-1,1.983605519E-1
6.633612500E-1,1.032604763E-1,7.260906117E-2,1.430293268E-1,1.907673715E-1
6.732772500E-1,9.258285748E-2,7.290701335E-2,1.538057452E-1,1.937607426E-1
6.831942500E-1,8.856943829E-2,6.767859757E-2,1.476667535E-1,1.850146158E-1
6.931102500E-1,8.239998624E-2,6.046047480E-2,1.431725836E-1,1.759079743E-1
7.030272500E-1,9.150612926E-2,6.802005669E-2,1.457108599E-1,1.850182545E-1
7.129432500E-1,9.259466155E-2,7.596540864E-2,1.575345147E-1,1.978929963E-1
7.228592500E-1,9.802930132E-2,6.949323527E-2,1.582806194E-1,1.987254592E-1
7.327762500E-1,1.008630265E-1,6.413185014E-2,1.609720927E-1,2.004950347E-1
7.426922500E-1,8.966586431E-2,6.065524190E-2,1.492946184E-1,1.844123333E-1
7.526092500E-1,9.004187683E-2,7.272141451E-2,1.450986564E-1,1.856059369E-1
7.625252500E-1,9.582888443E-2,7.174005529E-2,1.374633622E-1,1.822799676E-1
7.724412500E-1,9.318669213E-2,6.550848571E-2,1.537776786E-1,1.913705717E-1
7.823582500E-1,9.049161907E-2,6.479909968E-2,1.446437430E-1,1.825088185E-1
7.922742500E-1,9.594442176E-2,6.113058855E-2,1.504769254E-1,1.886414217E-1
8.021912500E-1,9.926364854E-2,6.429512450E-2,1.479269546E-1,1.893924995E-1
8.121072500E-1,9.367550109E-2,6.623504793E-2,1.444806057E-1,1.844907220E-1
8.220242500E-1,9.001669725E-2,6.438595735E-2,1.417850393E-1,1.798653793E-1
8.319402500E-1,9.667366091E-2,6.181643954E-2,1.462680995E-1,1.859070355E-1
8.418562500E-1,9.570936369E-2,6.043064029E-2,1.470124501E-1,1.855392278E-1
8.517732500E-1,8.515784377E-2,6.054070499E-2,1.467124879E-1,1.801154892E-1
8.616892500E-1,8.913042381E-2,5.960959072E-2,1.449121302E-1,1.802694129E-1
8.716062500E-1,8.511141323E-2,6.392389483E-2,1.468522364E-1,1.813719833E-1
8.815222500E-1,9.418815572E-2,5.467219725E-2,1.419090003E-1,1.788815871E-1
8.914382500E-1,9.208615478E-2,6.042626402E-2,1.499886829E-1,1.860854596E-1
9.013552500E-1,9.727870155E-2,6.206426555E-2,1.428001159E-1,1.835946403E-1
9.112712500E-1,9.466336990E-2,6.323006331E-2,1.643541223E-1,1.999286673E-1
9.211882500E-1,9.369918231E-2,5.995329279E-2,1.616556323E-1,1.962306743E-1
9.311042500E-1,8.264969889E-2,5.326272592E-2,1.514750451E-1,1.805895345E-1
9.410202500E-1,7.951051153E-2,5.838623443E-2,1.414406383E-1,1.724422453E-1
9.509372500E-1,8.780109588E-2,6.080644267E-2,1.444297349E-1,1.796285173E-1
9.608532500E-1,9.630844748E-2,7.011538815E-2,1.557996458E-1,1.961249967E-1
9.707702500E-1,9.782177998E-2,6.265701334E-2,1.519054002E-1,1.912335027E-1
9.806862500E-1,9.942676758E-2,6.120485276E-2,1.478602964E-1,1.883995312E-1
9.906032500E-1,8.407521352E-2,6.483074773E-2,1.475562412E-1,1.817814943E-1
1.000519250E0,7.715488762E-2,6.128038234E-2,1.518942904E-1,1.810525819E-1
1.010435458E0,7.476021526E-2,6.435204349E-2,1.496425277E-1,1.792293541E-1
1.020352458E0,8.388251122E-2,5.425761139E-2,1.518855196E-1,1.817948711E-1
1.030268458E0,9.397158947E-2,5.286196324E-2,1.476930660E-1,1.828613916E-1
1.040185458E0,9.557776479E-2,5.698860828E-2,1.485871053E-1,1.856365763E-1
1.050101458E0,9.339289784E-2,6.172662083E-2,1.463400203E-1,1.842493165E-1
1.060018458E0,8.741793880E-2,6.162698062E-2,1.464908785E-1,1.813818024E-1
1.069934458E0,8.478829974E-2,6.139655921E-2,1.473878413E-1,1.807809974E-1
1.079850458E0,8.535754446E-2,6.057941996E-2,1.509774470E-1,1.837116383E-1
1.089767458E0,9.030905804E-2,5.626337081E-2,1.473825788E-1,1.817771091E-1
1.099683458E0,9.675067971E-2,6.607822378E-2,1.517206281E-1,1.916929177E-1
1.109600458E0,8.708912428E-2,6.350292271E-2,1.457289863E-1,1.812569287E-1
1.119516458E0,9.300420418E-2,5.285111391E-2,1.331510407E-1,1.707987760E-1
1.129432458E0,9.532200392E-2,5.584226165E-2,1.373382318E-1,1.762567234E-1
1.139349458E0,8.804868892E-2,6.062894313E-2,1.443695086E-1,1.796412964E-1
1.149265458E0,8.695273798E-2,6.187987726E-2,1.557417583E-1,1.887998759E-1
1.159182458E0,8.838066459E-2,5.736038156E-2,1.484029180E-1,1.820021464E-1
1.169098458E0,8.809605137E-2,6.060888444E-2,1.418136907E-1,1.776104558E-1
1.179015458E0,8.679809740E-2,5.575169376E-2,1.421089751E-1,1.756050166E-1
1.188931458E0,8.714500174E-2,5.334938805E-2,1.443496281E-1,1.768536787E-1
1.198847458E0,7.835144721E-2,5.126802596E-2,1.504821879E-1,1.772350096E-1
1.208764458E0,8.458273357E-2,5.198811513E-2,1.584115970E-1,1.869524993E-1
1.218680458E0,8.621220639E-2,5.488660734E-2,1.387965274E-1,1.723646141E-1
1.228597458E0,7.996332357E-2,5.223731159E-2,1.381901711E-1,1.679862888E-1
1.238513458E0,7.618308038E-2,5.849946485E-2,1.366862673E-1,1.670604225E-1
1.248429458E0,9.205269774E-2,6.476778053E-2,1.464136952E-1,1.846768386E-1
1.258346458E0,9.310322313E-2,5.996822147E-2,1.518001503E-1,1.879033884E-1
1.268262458E0,8.748295253E-2,5.210378950E-2,1.507511598E-1,1.819175199E-1
1.278179458E0,7.969796961E-2,5.462442367E-2,1.407190919E-1,1.706969737E-1
1.288095458E0,7.875950977E-2,5.449953994E-2,1.483502930E-1,1.765816233E-1
1.298012458E0,6.617323190E-2,5.700629611E-2,1.402671021E-1,1.652376300E-1
1.307928458E0,7.334789341E-2,5.529627789E-2,1.555330127E-1,1.806325272E-1
1.317844458E0,7.904030403E-2,5.480534018E-2,1.493905127E-1,1.776753226E-1
1.327761458E0,9.712528523E-2,5.578806984E-2,1.442975879E-1,1.826675221E-1
1.337677458E0,9.048219044E-2,5.486153284E-2,1.468446350E-1,1.809976834E-1
1.347594458E0,9.009830246E-2,4.780132600E-2,1.583694971E-1,1.883708270E-1
1.357510458E0,7.556590676E-2,5.089352550E-2,1.468440503E-1,1.728106834E-1
1.367427458E0,7.784043711E-2,5.196688243E-2,1.443005115E-1,1.719951398E-1
1.377343458E0,8.570923621E-2,5.681381308E-2,1.532777417E-1,1.845750487E-1
1.387259458E0,8.535999298E-2,5.173684018E-2,1.493852502E-1,1.796635244E-1
1.397176458E0,8.600194417E-2,5.944361659E-2,1.468358642E-1,1.802516268E-1
1.407092458E0,8.780082179E-2,5.167558603E-2,1.496770263E-1,1.810595556E-1
1.417009458E0,7.787670812E-2,5.125560519E-2,1.356062865E-1,1.645630082E-1
1.426925458E0,7.271851374E-2,5.853892442E-2,1.477299035E-1,1.747538620E-1
1.436842458E0,7.405487660E-2,5.721136892E-2,1.468288475E-1,1.741148355E-1
1.446758458E0,8.102112142E-2,4.920270259E-2,1.444326586E-1,1.727602990E-1
1.456674458E0,7.821442137E-2,5.027074678E-2,1.373955345E-1,1.658980910E-1
1.466591458E0,6.952827288E-2,5.695661305E-2,1.496670860E-1,1.745808498E-1
1.476507458E0,7.300378477E-2,5.414688888E-2,1.415733701E-1,1.682392858E-1
1.486424458E0,7.822977031E-2,4.834906850E-2,1.295953488E-1,1.589103012E-1
1.496340458E0,8.275628267E-2,5.503281057E-2,1.448618442E-1,1.756763116E-1
1.506256458E0,7.872373212E-2,5.705948750E-2,1.530900460E-1,1.813553785E-1
1.516173458E0,7.637348033E-2,5.728641885E-2,1.520375472E-1,1.795273184E-1
1.526089458E0,7.709873607E-2,5.605696410E-2,1.508341902E-1,1.784308025E-1
1.536006458E0,7.268929593E-2,5.743175413E-2,1.449922371E-1,1.720607130E-1
1.545922458E0,8.299885076E-2,5.221273044E-2,1.470855403E-1,1.767742476E-1
1.555839458E0,8.004569622E-2,5.663996805E-2,1.520235139E-1,1.809048044E-1
1.565755458E0,8.600678639E-2,5.760651279E-2,1.654984224E-1,1.952060589E-1
1.575671458E0,7.435195170E-2,5.250591349E-2,1.538203633E-1,1.787338464E-1
1.585588458E0,7.585039208E-2,5.893226387E-2,1.608533943E-1,1.873502286E-1
1.595504458E0,6.435937079E-2,5.257709420E-2,1.651920283E-1,1.849185920E-1
1.605421458E0,6.954426136E-2,4.786326994E-2,1.550120258E-1,1.765106939E-1
1.615337458E0,8.413913090E-2,5.829544727E-2,1.538133466E-1,1.847601097E-1
1.625254458E0,8.133407537E-2,5.092039528E-2,1.548588288E-1,1.821795140E-1
1.635170458E0,7.941370357E-2,5.518879876E-2,1.440794867E-1,1.735259010E-1
1.645086458E0,8.756212749E-2,4.924694500E-2,1.458739972E-1,1.771203287E-1
1.655003458E0,7.241592033E-2,5.443058391E-2,1.502120465E-1,1.754149734E-1
1.664919458E0,6.873559143E-2,4.795217046E-2,1.413786578E-1,1.643530257E-1
1.674836458E0,7.171456508E-2,3.957247546E-2,1.392830157E-1,1.615819239E-1
1.684752458E0,7.943840805E-2,5.562167087E-2,1.488619244E-1,1.776628928E-1
1.694669458E0,7.865807885E-2,4.936580337E-2,1.464639813E-1,1.734236827E-1
1.704585458E0,7.933308508E-2,5.119054578E-2,1.543963140E-1,1.809763304E-1
1.714502458E0,7.657953987E-2,5.144241916E-2,1.448174053E-1,1.717056473E-1
1.724418458E0,7.317386566E-2,4.770064426E-2,1.524526995E-1,1.757031351E-1
1.734334458E0,7.348636279E-2,4.404209624E-2,1.431708294E-1,1.668467505E-1
1.744251458E0,7.229780657E-2,5.957748128E-2,1.506529266E-1,1.774056183E-1
1.754167458E0,8.514242174E-2,5.702215211E-2,1.496015972E-1,1.813322798E-1
1.764084458E0,7.846429847E-2,5.498122717E-2,1.542378545E-1,1.815733935E-1
1.774000458E0,7.498363372E-2,4.827453934E-2,1.446542680E-1,1.699347926E-1
1.783917458E0,7.532629883E-2,5.249556666E-2,1.462985051E-1,1.727225764E-1
1.793833458E0,7.386619426E-2,5.228764789E-2,1.379141825E-1,1.649561594E-1
1.803749458E0,7.149403369E-2,4.515672629E-2,1.434479874E-1,1.665168216E-1
1.813666458E0,7.618942095E-2,4.301813914E-2,1.410512137E-1,1.659844362E-1
1.823582458E0,7.616639754E-2,5.128238361E-2,1.431433475E-1,1.700624030E-1
1.833499458E0,7.357028861E-2,4.581674446E-2,1.498787552E-1,1.731340599E-1
1.843415458E0,7.858690728E-2,4.859703155E-2,1.435877359E-1,1.707483861E-1
1.853332458E0,7.942771861E-2,4.467847430E-2,1.438865286E-1,1.703181190E-1
1.863248458E0,7.035154257E-2,4.923203004E-2,1.486748135E-1,1.716896400E-1
1.873164458E0,8.239249449E-2,5.008387799E-2,1.551079202E-1,1.826345665E-1
1.883081458E0,8.276647875E-2,4.986795128E-2,1.447782290E-1,1.740627420E-1
1.892997458E0,7.484967766E-2,5.369191612E-2,1.462727773E-1,1.728612782E-1
1.902914458E0,7.664035091E-2,4.928856987E-2,1.426802480E-1,1.692948897E-1
1.912830458E0,7.152800236E-2,5.406082517E-2,1.453717214E-1,1.707974394E-1
1.922747458E0,7.558167597E-2,5.005124322E-2,1.530011684E-1,1.778400242E-1
1.932663458E0,7.605157284E-2,5.570161784E-2,1.402752882E-1,1.690078946E-1
1.942580458E0,7.677288171E-2,4.587338023E-2,1.494092238E-1,1.741308661E-1
1.952496458E0,7.416239228E-2,5.569726441E-2,1.506061488E-1,1.768741297E-1
1.962412458E0,8.501372818E-2,5.325901659E-2,1.471592152E-1,1.781002287E-1
1.972329458E0,7.439121941E-2,5.405641235E-2,1.522427845E-1,1.778595364E-1
1.982245458E0,7.391755840E-2,5.141919019E-2,1.399624622E-1,1.664248460E-1
1.992162458E0,7.093993692E-2,5.458190345E-2,1.435503137E-1,1.691695936E-1
2.002078458E0,7.420003373E-2,4.834718642E-2,1.517831933E-1,1.757305700E-1
2.011995625E0,7.731996182E-2,5.131339670E-2,1.505833447E-1,1.768807080E-1
2.021911625E0,8.361132832E-2,5.234916243E-2,1.541729504E-1,1.830316575E-1
2.031827625E0,7.509659462E-2,4.954716755E-2,1.522246581E-1,1.768241128E-1
2.041744625E0,7.553550124E-2,4.373014729E-2,1.441397130E-1,1.685057702E-1
2.051660625E0,7.734305833E-2,4.304948570E-2,1.459365624E-1,1.706830019E-1
2.061577625E0,7.842561549E-2,5.532742345E-2,1.474340343E-1,1.759218447E-1
2.071493625E0,7.606396163E-2,5.219101352E-2,1.427942687E-1,1.699995039E-1
2.081410625E0,7.844587974E-2,4.806569324E-2,1.492314684E-1,1.753114317E-1
2.091326625E0,7.367517304E-2,5.790420459E-2,1.342637658E-1,1.637305312E-1
2.101243625E0,6.459020790E-2,4.844441922E-2,1.399507678E-1,1.615703380E-1
2.111159625E0,6.655467136E-2,5.861017822E-2,1.436912316E-1,1.688545152E-1
2.121075625E0,7.741949240E-2,4.656855935E-2,1.475825536E-1,1.730405116E-1
2.130992625E0,7.449444104E-2,4.873447767E-2,1.540150756E-1,1.778907377E-1
2.140908625E0,8.076185223E-2,3.782841092E-2,1.426358092E-1,1.682214003E-1
2.150825625E0,7.589927115E-2,5.005205635E-2,1.465271312E-1,1.724416072E-1
2.160741625E0,7.326135462E-2,5.316204874E-2,1.543091905E-1,1.788987305E-1
2.170658625E0,7.664586922E-2,5.428794382E-2,1.436812913E-1,1.716568775E-1
2.180574625E0,6.438723642E-2,4.807917381E-2,1.504178685E-1,1.705369706E-1
2.190491625E0,6.992199149E-2,5.164485617E-2,1.525105870E-1,1.755441688E-1
2.200407625E0,7.306578353E-2,5.133741139E-2,1.424785191E-1,1.681495374E-1
2.210323625E0,7.823035503E-2,4.794501219E-2,1.551985520E-1,1.802922716E-1
2.220240625E0,7.333990831E-2,4.698885082E-2,1.418756711E-1,1.664794291E-1
2.230156625E0,6.443043273E-2,5.125608028E-2,1.445688987E-1,1.663689661E-1
2.240073625E0,6.688134799E-2,5.382431444E-2,1.409716916E-1,1.650551101E-1
2.249989625E0,6.458869128E-2,5.626093599E-2,1.316874826E-1,1.570941916E-1
2.259906625E0,6.681796052E-2,5.120153672E-2,1.403670895E-1,1.636739351E-1
2.269822625E0,7.412878906E-2,5.129931770E-2,1.494975168E-1,1.745743534E-1
2.279739625E0,7.552503107E-2,5.110316645E-2,1.580297738E-1,1.824526606E-1
2.289655625E0,7.379314061E-2,4.560332566E-2,1.527894992E-1,1.756978144E-1
2.299571625E0,6.786718855E-2,4.353059735E-2,1.439561105E-1,1.649976664E-1
2.309488625E0,7.294023285E-2,5.600855098E-2,1.493454891E-1,1.753890261E-1
2.319404625E0,7.121981755E-2,5.325940032E-2,1.569784445E-1,1.804191180E-1
2.329321625E0,7.059496947E-2,5.189221166E-2,1.518884432E-1,1.753469433E-1
2.339237625E0,6.694305439E-2,4.691807667E-2,1.533841610E-1,1.738084558E-1
2.349154625E0,6.147881309E-2,5.148410342E-2,1.391625631E-1,1.606128150E-1
2.359070625E0,7.145120284E-2,5.058724103E-2,1.414067245E-1,1.663135745E-1
2.368987625E0,7.628959106E-2,4.829388997E-2,1.542782003E-1,1.787572784E-1
2.378903625E0,7.084671037E-2,4.469118743E-2,1.463411897E-1,1.686188080E-1
2.388819625E0,6.707666326E-2,4.706603406E-2,1.530789363E-1,1.736307895E-1
2.398736625E0,6.404362114E-2,5.253727832E-2,1.536747676E-1,1.745785933E-1
2.408652625E0,6.143888757E-2,4.360511280E-2,1.499343038E-1,1.677988028E-1
2.418569625E0,6.452124730E-2,4.991172317E-2,1.493349642E-1,1.701619904E-1
2.428485625E0,7.334559107E-2,5.439056246E-2,1.517282295E-1,1.770857551E-1
2.438402625E0,7.232678683E-2,4.174825638E-2,1.436426997E-1,1.661544648E-1
2.448318625E0,7.282206427E-2,4.771400149E-2,1.421423042E-1,1.666856731E-1
2.458235625E0,7.460820593E-2,4.410316767E-2,1.419896919E-1,1.663506729E-1
2.468151625E0,6.956127310E-2,5.364242492E-2,1.430328351E-1,1.678531274E-1
2.478067625E0,6.762849424E-2,4.774070225E-2,1.484222138E-1,1.699468783E-1
2.487984625E0,6.925772952E-2,4.578796977E-2,1.512657148E-1,1.725528549E-1
2.497900625E0,7.595187781E-2,4.094316788E-2,1.502173090E-1,1.732347271E-1
2.507817625E0,6.938644135E-2,4.183788780E-2,1.431778461E-1,1.645137766E-1
2.517733625E0,6.378908454E-2,4.882785953E-2,1.552985394E-1,1.748451987E-1
2.527650625E0,6.360500688E-2,4.999839901E-2,1.518562835E-1,1.720632664E-1
2.537566625E0,6.612395084E-2,4.532198322E-2,1.509546429E-1,1.709203418E-1
2.547483625E0,6.738327663E-2,4.470250270E-2,1.418201226E-1,1.632536888E-1
2.557399625E0,6.913946958E-2,3.775522022E-2,1.397238958E-1,1.604010286E-1
2.567316625E0,7.139019080E-2,4.621655697E-2,1.485531914E-1,1.711741223E-1
2.577232625E0,7.229420688E-2,3.540638456E-2,1.504997295E-1,1.706758126E-1
2.587148625E0,6.462806862E-2,4.515144553E-2,1.513943535E-1,1.706917999E-1
2.597065625E0,6.893933035E-2,4.806548767E-2,1.403173882E-1,1.635600556E-1
2.606981625E0,5.954152090E-2,3.577439826E-2,1.470510417E-1,1.626315134E-1
2.616898625E0,7.169687726E-2,4.016761695E-2,1.422592485E-1,1.642911241E-1
2.626814625E0,7.837496398E-2,4.404045171E-2,1.477971464E-1,1.729918867E-1
2.636731625E0,7.089144157E-2,5.153510210E-2,1.474977690E-1,1.715723028E-1
2.646647625E0,7.042251315E-2,4.116541232E-2,1.489917326E-1,1.698601128E-1
2.656564625E0,6.849788385E-2,4.431052912E-2,1.464446855E-1,1.676348084E-1
2.666480625E0,6.612742262E-2,4.303075634E-2,1.506371391E-1,1.700471396E-1
2.676397625E0,6.918147817E-2,3.920874667E-2,1.340170133E-1,1.558331242E-1
2.686313625E0,7.076916168E-2,5.114202303E-2,1.495869792E-1,1.732052109E-1
2.696229625E0,6.972126754E-2,4.789411400E-2,1.506353849E-1,1.727597190E-1
2.706146625E0,6.722713770E-2,4.368886046E-2,1.320716447E-1,1.545028281E-1
2.716062625E0,7.344618145E-2,5.061215109E-2,1.483871305E-1,1.731319494E-1
2.725979625E0,6.745581865E-2,5.014146393E-2,1.492835087E-1,1.713184749E-1
2.735895625E0,7.044104151E-2,4.300344802E-2,1.443443656E-1,1.662724654E-1
2.745812625E0,6.743107762E-2,4.593288935E-2,1.536256510E-1,1.739471793E-1
2.755728625E0,6.837204080E-2,4.736268433E-2,1.459897721E-1,1.680207528E-1
2.765645625E0,6.252515405E-2,4.012697423E-2,1.486824149E-1,1.662107982E-1
2.775561625E0,6.696227711E-2,4.588330679E-2,1.603604740E-1,1.797350996E-1
2.785478625E0,6.455342526E-2,4.292554300E-2,1.503342533E-1,1.691453064E-1
2.795394625E0,6.807330290E-2,4.892695613E-2,1.606616056E-1,1.812180265E-1
2.805311625E0,6.476867588E-2,4.818628749E-2,1.400016385E-1,1.616086584E-1
2.815227625E0,6.684933448E-2,4.332209843E-2,1.410494596E-1,1.619894681E-1
2.825143625E0,6.964624045E-2,4.357117154E-2,1.552728117E-1,1.756664221E-1
2.835060625E0,6.187909154E-2,4.823153946E-2,1.488361967E-1,1.682483783E-1
2.844976625E0,6.977226622E-2,3.924256002E-2,1.449413663E-1,1.655782212E-1
2.854893625E0,6.871269593E-2,4.294111578E-2,1.497290665E-1,1.702473711E-1
2.864809625E0,7.216417942E-2,4.247804828E-2,1.361056387E-1,1.598023726E-1
2.874726625E0,6.620709093E-2,5.150363677E-2,1.329604214E-1,1.572083877E-1
2.884642625E0,6.656897876E-2,3.637297042E-2,1.480783975E-1,1.663779845E-1
2.894559625E0,6.764546944E-2,4.123196094E-2,1.504740018E-1,1.700541365E-1
2.904475625E0,7.622554578E-2,5.265180609E-2,1.467306143E-1,1.735293050E-1
2.914392625E0,7.042335369E-2,3.589739079E-2,1.434357083E-1,1.637738496E-1
2.924308625E0,6.312855016E-2,4.244768387E-2,1.507687014E-1,1.688733876E-1
2.934224625E0,6.253904119E-2,3.542324098E-2,1.351993203E-1,1.531169288E-1
2.944141625E0,6.370936140E-2,4.432006282E-2,1.495659292E-1,1.685025753E-1
2.954057625E0,6.879777292E-2,4.104878778E-2,1.498653066E-1,1.699345364E-1
2.963974625E0,7.281378681E-2,3.466785838E-2,1.482210696E-1,1.687400172E-1
2.973890625E0,6.644467061E-2,3.863242591E-2,1.560037136E-1,1.739095088E-1
2.983807625E0,6.408824271E-2,4.195124156E-2,1.518077517E-1,1.700376517E-1
2.993723625E0,5.841620598E-2,4.482720371E-2,1.411804372E-1,1.592289143E-1
3.003640625E0,6.161328077E-2,4.218845122E-2,1.471691555E-1,1.650297613E-1
3.013555875E0,6.844376056E-2,4.363629491E-2,1.423761928E-1,1.638891542E-1
3.023472875E0,6.861281818E-2,3.911717836E-2,1.518042433E-1,1.711210120E-1
3.033388875E0,7.028504876E-2,3.426776265E-2,1.470153737E-1,1.665166290E-1
3.043305875E0,6.652340703E-2,4.221950999E-2,1.461166567E-1,1.660058073E-1
3.053221875E0,6.451134358E-2,3.714784526E-2,1.425235426E-1,1.607937687E-1
3.063137875E0,6.380560292E-2,4.139702145E-2,1.456652516E-1,1.643266073E-1
3.073054875E0,6.628370773E-2,4.096431378E-2,1.452156007E-1,1.648004114E-1
3.082970875E0,6.333334889E-2,3.607151904E-2,1.507529140E-1,1.674476295E-1
3.092887875E0,6.885030650E-2,4.324784336E-2,1.432678932E-1,1.647313871E-1
3.102803875E0,6.358582070E-2,4.059732791E-2,1.543442738E-1,1.717948034E-1
3.112720875E0,6.684670324E-2,4.633015284E-2,1.458120167E-1,1.669613998E-1
3.122636875E0,6.161878081E-2,4.248663181E-2,1.468580836E-1,1.648310794E-1
3.132553875E0,6.636991762E-2,4.583182388E-2,1.428123951E-1,1.640149452E-1
3.142469875E0,6.564358380E-2,3.729479767E-2,1.452079993E-1,1.636622898E-1
3.152386875E0,6.222778659E-2,3.735862825E-2,1.435590845E-1,1.608638408E-1
3.162302875E0,6.208410954E-2,4.178217480E-2,1.480474073E-1,1.658861706E-1
3.172219875E0,6.362209171E-2,4.475705997E-2,1.419084156E-1,1.618300447E-1
3.182135875E0,6.645895975E-2,4.142004943E-2,1.440017188E-1,1.639173842E-1
3.192052875E0,6.157812439E-2,4.673026227E-2,1.505839294E-1,1.692663659E-1
3.201968875E0,6.111180894E-2,4.079797420E-2,1.523778552E-1,1.691689648E-1
3.211884875E0,6.296548594E-2,4.750541121E-2,1.414482397E-1,1.619537620E-1
3.221801875E0,5.691356292E-2,4.692543594E-2,1.457851195E-1,1.633843666E-1
3.231717875E0,5.842921603E-2,4.387594395E-2,1.414423925E-1,1.592012002E-1
3.241634875E0,5.879031815E-2,3.857251479E-2,1.414406383E-1,1.579544066E-1
3.251550875E0,6.108536856E-2,4.270973050E-2,1.492256212E-1,1.668047642E-1
3.261467875E0,6.221695097E-2,3.888469215E-2,1.601523131E-1,1.761582574E-1
3.271383875E0,6.691866053E-2,4.362756976E-2,1.423352623E-1,1.632200933E-1
3.281300875E0,6.216591574E-2,3.865146134E-2,1.599997008E-1,1.759501088E-1
3.291216875E0,6.823059300E-2,3.365994001E-2,1.486192650E-1,1.669613467E-1
3.301133875E0,6.952149376E-2,4.439290634E-2,1.481696141E-1,1.695824365E-1
3.311049875E0,6.075147428E-2,4.015441960E-2,1.502646714E-1,1.669808089E-1
3.320966875E0,6.349392805E-2,4.729909129E-2,1.499641246E-1,1.695816075E-1
3.330882875E0,5.914272252E-2,3.929472358E-2,1.445765001E-1,1.610723480E-1
3.340799875E0,6.037679566E-2,3.457454504E-2,1.423294151E-1,1.584248056E-1
3.350715875E0,6.233802488E-2,3.398299411E-2,1.342473936E-1,1.518658484E-1
3.360632875E0,6.578172427E-2,4.166290530E-2,1.408319432E-1,1.609244206E-1
3.370548875E0,6.280088682E-2,4.228687631E-2,1.373844248E-1,1.568649466E-1
3.380464875E0,6.248997940E-2,3.868892920E-2,1.459143430E-1,1.633793936E-1
3.390381875E0,6.417797919E-2,3.505097434E-2,1.400747287E-1,1.580136495E-1
3.400297875E0,5.823072134E-2,3.394321020E-2,1.514493173E-1,1.657704864E-1
3.410214875E0,5.244232502E-2,4.803452941E-2,1.426165134E-1,1.593643102E-1
3.420130875E0,6.045346728E-2,4.356340571E-2,1.424662399E-1,1.607763090E-1
3.430047875E0,5.908096131E-2,3.185380819E-2,1.418657309E-1,1.569430173E-1
3.439963875E0,5.875952890E-2,2.911934408E-2,1.453056479E-1,1.594187873E-1
3.449880875E0,6.009784693E-2,4.985158365E-2,1.402162313E-1,1.604915049E-1
3.459796875E0,5.802740268E-2,4.110893187E-2,1.485993844E-1,1.647388867E-1
3.469713875E0,6.315776797E-2,3.957159381E-2,1.474001205E-1,1.651714570E-1
3.479629875E0,6.302587671E-2,3.763395445E-2,1.447033846E-1,1.622579588E-1
3.489546875E0,6.019003194E-2,3.658204035E-2,1.429047811E-1,1.593199990E-1
3.499462875E0,5.545709459E-2,4.067571258E-2,1.454453963E-1,1.608861903E-1
3.509379875E0,5.487811061E-2,4.121732920E-2,1.520311153E-1,1.668050817E-1
3.519295875E0,6.266322143E-2,4.780549214E-2,1.499354732E-1,1.693891689E-1
3.529212875E0,6.250247782E-2,3.989191616E-2,1.506815779E-1,1.679370794E-1
3.539128875E0,6.266800884E-2,3.686746670E-2,1.512803328E-1,1.678458475E-1
3.549045875E0,6.928893903E-2,3.940050337E-2,1.472369832E-1,1.674278530E-1
3.558961875E0,5.922403537E-2,3.909928953E-2,1.409500569E-1,1.578073488E-1
3.568878875E0,5.320186006E-2,2.670746356E-2,1.505277961E-1,1.618713808E-1
3.578794875E0,6.036460787E-2,3.526739441E-2,1.446899360E-1,1.606949053E-1
3.588710875E0,5.585768368E-2,3.852692478E-2,1.511247969E-1,1.656596179E-1
3.598627875E0,5.987084705E-2,3.414013346E-2,1.560639399E-1,1.706048662E-1
3.608543875E0,6.011405468E-2,3.313682891E-2,1.497764289E-1,1.647565709E-1
3.618460875E0,5.786896141E-2,4.290400424E-2,1.472323054E-1,1.639113237E-1
3.628376875E0,5.952425335E-2,4.288431556E-2,1.529181379E-1,1.696058907E-1
3.638293875E0,5.847414823E-2,3.871041771E-2,1.535168928E-1,1.687754687E-1
3.648209875E0,5.564446131E-2,4.101744579E-2,1.515715241E-1,1.665913079E-1
3.658126875E0,6.288691398E-2,4.038567698E-2,1.517200434E-1,1.691293541E-1
3.668042875E0,5.273506952E-2,4.386031636E-2,1.572561872E-1,1.715640502E-1
3.677959875E0,4.986653516E-2,3.759464106E-2,1.457301557E-1,1.585474902E-1
3.687875875E0,5.537941799E-2,3.629568210E-2,1.487239301E-1,1.627976163E-1
3.697792875E0,5.518596651E-2,3.135732933E-2,1.449811274E-1,1.582665483E-1
3.707708875E0,6.078388978E-2,3.948177966E-2,1.460277790E-1,1.630263918E-1
3.717625875E0,5.837412430E-2,3.645643485E-2,1.389924091E-1,1.550983553E-1
3.727541875E0,6.359641878E-2,4.082704583E-2,1.439327216E-1,1.625668493E-1
3.737458875E0,6.414921820E-2,4.281138982E-2,1.442309296E-1,1.635557958E-1
3.747374875E0,5.489671206E-2,3.585589840E-2,1.433327973E-1,1.576184800E-1
3.757291875E0,5.873981282E-2,3.595894187E-2,1.343508893E-1,1.509754039E-1
3.767207875E0,6.263082420E-2,4.384472074E-2,1.451261383E-1,1.640322398E-1
3.777124875E0,6.201630011E-2,4.505745153E-2,1.529093671E-1,1.710481510E-1
3.787040875E0,6.259897515E-2,3.805644319E-2,1.518603766E-1,1.686075281E-1
3.796957875E0,6.318223491E-2,3.099977209E-2,1.502108771E-1,1.658803432E-1
3.806873875E0,5.496333377E-2,3.843291708E-2,1.415242535E-1,1.566115305E-1
3.816790875E0,5.419703789E-2,3.753679931E-2,1.469159710E-1,1.610299126E-1
3.826706875E0,5.532772494E-2,4.541172885E-2,1.359904486E-1,1.536775337E-1
3.836623875E0,6.763594944E-2,4.395148267E-2,1.391339117E-1,1.608247490E-1
3.846539875E0,6.391796082E-2,4.395530620E-2,1.454190838E-1,1.648159113E-1
3.856456875E0,5.529017486E-2,4.421132288E-2,1.409266680E-1,1.577084978E-1
3.866372875E0,6.140822623E-2,4.633075126E-2,1.511031622E-1,1.695572894E-1
3.876288875E0,6.264982766E-2,4.278142284E-2,1.557446820E-1,1.732387284E-1
3.886205875E0,5.010270786E-2,2.920617067E-2,1.496086138E-1,1.604556608E-1
3.896121875E0,5.808099607E-2,3.712039076E-2,1.446647930E-1,1.602473958E-1
3.906038875E0,5.609796770E-2,3.720263093E-2,1.466101617E-1,1.613243851E-1
3.915954875E0,6.648278715E-2,3.801546243E-2,1.487022954E-1,1.672647872E-1
3.925871875E0,6.485861337E-2,2.979846164E-2,1.473533428E-1,1.637302528E-1
3.935787875E0,4.871406723E-2,3.412685389E-2,1.389713591E-1,1.511646161E-1
3.945704875E0,4.599333951E-2,3.598138969E-2,1.391204631E-1,1.508792595E-1
3.955620875E0,5.894949032E-2,4.811235219E-2,1.497442693E-1,1.679678154E-1
3.965537875E0,6.640905742E-2,3.979489349E-2,1.485438359E-1,1.675084106E-1
3.975453875E0,6.143285763E-2,3.395716129E-2,1.480912614E-1,1.638844303E-1
3.985370875E0,5.922745233E-2,3.088930083E-2,1.573713773E-1,1.709613711E-1
3.995286875E0,6.196349245E-2,3.887884037E-2,1.374616081E-1,1.557136228E-1
4.005203875E0,5.272401463E-2,3.806582158E-2,1.468931669E-1,1.606438015E-1
4.015120250E0,5.416548120E-2,3.484117351E-2,1.470446098E-1,1.605301342E-1
4.025037250E0,5.831064546E-2,3.709873779E-2,1.422534013E-1,1.581533367E-1
4.034953250E0,5.781001417E-2,4.265920690E-2,1.444963932E-1,1.613722818E-1
4.044870250E0,6.047071656E-2,4.058154043E-2,1.555733585E-1,1.717749658E-1
4.054786250E0,6.017130258E-2,3.681852368E-2,1.407541752E-1,1.574418215E-1
4.064703250E0,5.737309925E-2,3.660030833E-2,1.397040153E-1,1.553977701E-1
4.074619250E0,5.224653466E-2,4.154289577E-2,1.438947147E-1,1.586228278E-1
4.084536250E0,5.512771362E-2,3.818954957E-2,1.525754911E-1,1.666636943E-1
4.094452250E0,5.680823995E-2,4.161963134E-2,1.467352921E-1,1.627593800E-1
4.104369250E0,4.731126538E-2,4.605303593E-2,1.453869241E-1,1.596765345E-1
4.114285250E0,5.442237496E-2,4.455828204E-2,1.495764542E-1,1.652886900E-1
4.124202250E0,5.214634627E-2,3.641983037E-2,1.473311234E-1,1.604746254E-1
4.134118250E0,4.856737521E-2,3.551983881E-2,1.560107303E-1,1.672118322E-1
4.144035250E0,5.805254571E-2,3.640261763E-2,1.551085049E-1,1.695697406E-1
4.153951250E0,6.438794905E-2,3.893291797E-2,1.525620425E-1,1.701080741E-1
4.163868250E0,5.608027987E-2,4.152283251E-2,1.524117690E-1,1.676260444E-1
4.173784250E0,4.962098865E-2,3.634247353E-2,1.474720412E-1,1.597842947E-1
4.183701250E0,5.437667532E-2,4.476761236E-2,1.462745315E-1,1.623490083E-1
4.193617250E0,6.349743638E-2,3.201415894E-2,1.440274465E-1,1.606260756E-1
4.203534250E0,5.299932713E-2,3.843447025E-2,1.474702871E-1,1.613493810E-1
4.213450250E0,5.693075739E-2,4.411246383E-2,1.506119961E-1,1.669460810E-1
4.223367250E0,6.060850985E-2,3.700390783E-2,1.545027333E-1,1.700405107E-1
4.233283250E0,5.773573626E-2,3.409920295E-2,1.542056948E-1,1.681534037E-1
4.243200250E0,5.622297021E-2,3.955399278E-2,1.519609487E-1,1.667863024E-1
4.253116250E0,5.322190505E-2,4.275749951E-2,1.419294655E-1,1.574952321E-1
4.263033250E0,5.705583299E-2,3.805144108E-2,1.571971303E-1,1.715057376E-1
4.272949250E0,6.093169643E-2,3.804952246E-2,1.554002810E-1,1.712007159E-1
4.282866250E0,4.934885558E-2,4.130700630E-2,1.428258437E-1,1.566550348E-1
4.292782250E0,5.260988429E-2,3.725494981E-2,1.470177126E-1,1.605301810E-1
4.302699250E0,5.771961987E-2,3.698350196E-2,1.495624208E-1,1.645243194E-1
4.312615250E0,5.360195579E-2,3.596130359E-2,1.513581008E-1,1.645468313E-1
4.322532250E0,5.591261096E-2,3.863028802E-2,1.603400087E-1,1.741477465E-1
4.332448250E0,5.490816895E-2,4.011966978E-2,1.515072048E-1,1.660690459E-1
4.342365250E0,5.919560328E-2,3.781342742E-2,1.503067714E-1,1.659099161E-1
4.352281250E0,5.051532028E-2,4.031534137E-2,1.324920595E-1,1.474152982E-1
4.362198250E0,4.562448984E-2,3.642506089E-2,1.458137709E-1,1.570669759E-1
4.372114250E0,5.203587044E-2,3.757297439E-2,1.486549330E-1,1.619189591E-1
4.382031250E0,6.246244267E-2,3.704762947E-2,1.535917372E-1,1.698955718E-1
4.391947250E0,5.566094315E-2,3.642944630E-2,1.369751197E-1,1.522741888E-1
4.401864250E0,5.490584834E-2,3.138429961E-2,1.461032081E-1,1.592035610E-1
4.411780250E0,5.429612992E-2,4.076552672E-2,1.425083399E-1,1.578560256E-1
4.421697250E0,4.767001033E-2,3.117817612E-2,1.462476343E-1,1.569486511E-1
4.431613250E0,5.198395813E-2,2.345939465E-2,1.432503515E-1,1.541860510E-1
4.441530250E0,5.493893992E-2,4.630069292E-2,1.544740820E-1,1.703651469E-1
4.451446250E0,5.680102229E-2,3.456751011E-2,1.526772326E-1,1.665280945E-1
4.461363250E0,4.694097217E-2,3.503182014E-2,1.399536914E-1,1.517159155E-1
4.471279250E0,5.529415827E-2,3.974961868E-2,1.478836852E-1,1.628098906E-1
4.481196250E0,5.547216944E-2,3.544416305E-2,1.568638390E-1,1.701167666E-1
4.491112250E0,4.765716473E-2,3.624252269E-2,1.505769128E-1,1.620436128E-1
4.501029250E0,5.953402916E-2,3.146066516E-2,1.567100573E-1,1.705641115E-1
4.510945250E0,5.879494110E-2,4.156029581E-2,1.462312621E-1,1.629959671E-1
4.520862250E0,5.349935543E-2,3.404679728E-2,1.408412987E-1,1.544591754E-1
4.530778250E0,4.748399578E-2,3.486267573E-2,1.424843663E-1,1.541814861E-1
4.540695250E0,4.834715445E-2,2.865126077E-2,1.487654454E-1,1.590267267E-1
4.550611250E0,5.265145434E-2,3.149396231E-2,1.387357163E-1,1.516958941E-1
4.560528250E0,5.028090175E-2,3.160228655E-2,1.502623326E-1,1.615724054E-1
4.570444250E0,5.340358900E-2,4.146059621E-2,1.486151719E-1,1.632709211E-1
4.580361250E0,5.162112013E-2,3.812755995E-2,1.480193406E-1,1.613325016E-1
4.590277250E0,4.769347228E-2,4.270600746E-2,1.507160765E-1,1.637492171E-1
4.600194250E0,4.997522028E-2,3.428719550E-2,1.593962681E-1,1.705294834E-1
4.610110250E0,4.894974656E-2,3.765632462E-2,1.508651805E-1,1.630164996E-1
4.620027250E0,5.357361507E-2,3.385837076E-2,1.570024180E-1,1.693111951E-1
4.629943250E0,5.587891638E-2,3.340184940E-2,1.561001927E-1,1.691313306E-1
4.639860250E0,4.809029723E-2,2.904564176E-2,1.474182469E-1,1.577607857E-1
4.649776250E0,5.168395942E-2,3.279577636E-2,1.522088706E-1,1.640558896E-1
4.659693250E0,5.178453153E-2,3.590634890E-2,1.460710484E-1,1.590837980E-1
4.669609250E0,5.419025877E-2,3.694780197E-2,1.294532615E-1,1.451201955E-1
4.679526250E0,4.810018267E-2,3.859520473E-2,1.572930247E-1,1.689506230E-1
4.689442250E0,5.001224047E-2,3.552193559E-2,1.605861765E-1,1.719039039E-1
4.699359250E0,5.232777441E-2,3.344394021E-2,1.510055137E-1,1.632769373E-1
4.709275250E0,4.978021564E-2,3.789631171E-2,1.417224741E-1,1.549175909E-1
4.719192250E0,5.518985856E-2,3.500738518E-2,1.439642966E-1,1.581048899E-1
4.729108250E0,5.465772539E-2,3.896471221E-2,1.503991574E-1,1.646985801E-1
4.739025250E0,5.187132614E-2,3.155477336E-2,1.517428476E-1,1.634387652E-1
4.748941250E0,5.236135935E-2,2.946268528E-2,1.417119491E-1,1.539221826E-1
4.758858250E0,5.232877940E-2,3.144190382E-2,1.408161557E-1,1.534799145E-1
4.768774250E0,5.105945852E-2,3.785313367E-2,1.444110239E-1,1.577798208E-1
4.778691250E0,4.695531612E-2,3.371477136E-2,1.424621469E-1,1.537431326E-1
4.788607250E0,4.901642310E-2,3.669384551E-2,1.444075155E-1,1.568520914E-1
4.798524250E0,5.084144874E-2,3.503987377E-2,1.474018747E-1,1.598122596E-1
4.808440250E0,5.251362450E-2,3.933637129E-2,1.463546383E-1,1.603892485E-1
4.818357250E0,5.138209691E-2,3.928352251E-2,1.450086093E-1,1.587791290E-1
4.828273250E0,4.968569174E-2,4.118550299E-2,1.460587692E-1,1.596811751E-1
4.838190250E0,4.462781366E-2,2.997845995E-2,1.563855368E-1,1.653686365E-1
4.848106250E0,4.857287524E-2,4.078861409E-2,1.496489596E-1,1.625356772E-1
4.858023250E0,4.716910494E-2,3.552914868E-2,1.436614108E-1,1.553249684E-1
4.867939250E0,5.129676411E-2,2.998347576E-2,1.497974789E-1,1.611510208E-1
4.877856250E0,5.038313666E-2,2.756328580E-2,1.451559591E-1,1.561039643E-1
4.887772250E0,4.946726169E-2,2.735357632E-2,1.548863107E-1,1.648787353E-1
4.897689250E0,5.326575916E-2,3.624524530E-2,1.529415268E-1,1.659580354E-1
4.907605250E0,5.165229309E-2,3.061413452E-2,1.557844430E-1,1.669550158E-1
4.917522250E0,5.291565713E-2,3.373886829E-2,1.469522238E-1,1.597915332E-1
4.927438250E0,5.311311029E-2,3.755934763E-2,1.423095345E-1,1.564727155E-1
4.937355250E0,5.003096983E-2,3.785103690E-2,1.464996493E-1,1.593673310E-1
4.947271250E0,4.578987468E-2,3.323052598E-2,1.491940463E-1,1.595614111E-1
4.957188250E0,4.216701295E-2,3.261390511E-2,1.491940463E-1,1.584316484E-1
4.967105250E0,4.409867719E-2,3.326058432E-2,1.533835763E-1,1.630260141E-1
4.977021250E0,5.015262846E-2,3.376074510E-2,1.424527913E-1,1.547509994E-1
4.986938250E0,5.467808101E-2,3.849168617E-2,1.430503768E-1,1.579072916E-1
4.996854250E0,4.668272624E-2,3.305863611E-2,1.530754280E-1,1.634143109E-1
5.006771250E0,4.760156136E-2,4.230084567E-2,1.499296260E-1,1.628931028E-1
5.016687208E0,4.848944278E-2,4.131975140E-2,1.532233626E-1,1.659395877E-1
5.026604208E0,4.830892827E-2,3.808925155E-2,1.494834834E-1,1.616473181E-1
5.036520208E0,4.717257673E-2,4.072100566E-2,1.505324739E-1,1.629216929E-1
5.046437208E0,5.733432490E-2,3.633147346E-2,1.469399446E-1,1.618596556E-1
5.056353208E0,5.355263818E-2,3.894812530E-2,1.514300215E-1,1.652752036E-1
5.066270208E0,5.964203820E-2,3.873681241E-2,1.397537166E-1,1.568082098E-1
5.076186208E0,4.848873015E-2,3.835094186E-2,1.499302107E-1,1.621758915E-1
5.086103208E0,3.961998409E-2,3.036422543E-2,1.511265510E-1,1.591570412E-1
5.096019208E0,4.299125109E-2,3.063143405E-2,1.400507551E-1,1.496687891E-1
5.105936208E0,4.356658056E-2,3.147294888E-2,1.518761641E-1,1.611054396E-1
5.115852208E0,4.544128926E-2,3.174096149E-2,1.461897469E-1,1.563452637E-1
5.125769208E0,4.570437742E-2,3.406788380E-2,1.433444917E-1,1.542632624E-1
5.135685208E0,4.793320812E-2,2.738274388E-2,1.478351533E-1,1.578057023E-1
5.145602208E0,4.939101035E-2,2.932231099E-2,1.466370589E-1,1.574855449E-1
5.155518208E0,5.052155122E-2,3.528638873E-2,1.440917659E-1,1.567162830E-1
5.165435208E0,5.406373965E-2,4.717625408E-2,1.458874458E-1,1.625780850E-1
5.175351208E0,5.233559506E-2,3.733896242E-2,1.413950300E-1,1.553247152E-1
5.185268208E0,4.955663273E-2,3.434887906E-2,1.547161567E-1,1.660505781E-1
5.195184208E0,4.151303843E-2,3.306264237E-2,1.562130439E-1,1.649817741E-1
5.205101208E0,4.637861621E-2,3.969672879E-2,1.563615632E-1,1.678563218E-1
5.215017208E0,4.988912003E-2,3.090428432E-2,1.422890693E-1,1.539161406E-1
5.224934208E0,4.729421709E-2,4.051023181E-2,1.479766560E-1,1.605456713E-1
5.234851208E0,4.473300872E-2,3.540605565E-2,1.469276655E-1,1.576146241E-1
5.244767208E0,4.721659530E-2,2.683949186E-2,1.496238166E-1,1.591761656E-1
5.254684208E0,5.619890526E-2,3.054258835E-2,1.422867304E-1,1.560021805E-1
5.264600208E0,4.728868051E-2,3.585553295E-2,1.436333442E-1,1.554103475E-1
5.274517208E0,4.514182046E-2,2.472882060E-2,1.526140827E-1,1.610601029E-1
5.284433208E0,4.547920480E-2,2.901497128E-2,1.490203840E-1,1.584843887E-1
5.294350208E0,4.333627336E-2,4.188651105E-2,1.443806183E-1,1.564553462E-1
5.304266208E0,5.194054255E-2,2.987130515E-2,1.416850519E-1,1.538335749E-1
5.314183208E0,4.973643461E-2,2.607691901E-2,1.523135358E-1,1.623364772E-1
5.324099208E0,5.068916531E-2,3.638106059E-2,1.545600361E-1,1.666786663E-1
5.334016208E0,4.582583506E-2,3.422375321E-2,1.464785993E-1,1.572490143E-1
5.343932208E0,4.278371148E-2,3.830902920E-2,1.530637336E-1,1.634825196E-1
5.353849208E0,4.297458652E-2,3.327668244E-2,1.538127619E-1,1.631334374E-1
5.363765208E0,5.073691148E-2,3.316998902E-2,1.553096491E-1,1.667200332E-1
5.373682208E0,5.139084946E-2,3.246363624E-2,1.550096869E-1,1.665019824E-1
5.383598208E0,4.783058949E-2,3.364542704E-2,1.626426423E-1,1.728363652E-1
5.393515208E0,5.161700880E-2,3.258620849E-2,1.466241950E-1,1.588232701E-1
5.403431208E0,4.682532521E-2,3.492155902E-2,1.557563764E-1,1.663495571E-1
5.413348208E0,4.244214272E-2,3.323879431E-2,1.460283637E-1,1.556612859E-1
5.423265208E0,4.876665562E-2,3.233856064E-2,1.583010846E-1,1.687696732E-1
5.433181208E0,4.814524278E-2,2.928961226E-2,1.569538862E-1,1.667644092E-1
5.443098208E0,4.488229545E-2,3.165151280E-2,1.443806183E-1,1.544733040E-1
5.453014208E0,4.658328703E-2,3.502082007E-2,1.404875422E-1,1.520960551E-1
5.462931208E0,4.581655260E-2,2.496647337E-2,1.455752045E-1,1.546435302E-1
5.472847208E0,5.190237120E-2,3.188266968E-2,1.464727521E-1,1.586336278E-1
5.482764208E0,4.715450518E-2,3.080316403E-2,1.527555853E-1,1.628086334E-1
5.492680208E0,4.576230140E-2,2.490775453E-2,1.515569061E-1,1.602625354E-1
5.502597208E0,4.472222792E-2,4.168149306E-2,1.554464740E-1,1.670360165E-1
5.512513208E0,4.331041770E-2,3.247651381E-2,1.392818463E-1,1.494320880E-1
5.522430208E0,4.312648622E-2,3.194805800E-2,1.487122357E-1,1.581009211E-1
5.532346208E0,4.685072405E-2,2.843370780E-2,1.521550763E-1,1.617239417E-1
5.542263208E0,4.878679197E-2,4.109752980E-2,1.653270990E-1,1.772066807E-1
5.552179208E0,5.375281395E-2,3.415700359E-2,1.506599432E-1,1.635679810E-1
5.562096208E0,4.989926130E-2,2.947975641E-2,1.497588873E-1,1.605824294E-1
5.572012208E0,5.265699092E-2,2.838548197E-2,1.418218768E-1,1.539218601E-1
5.581929208E0,5.170647120E-2,3.518753881E-2,1.427176702E-1,1.558205873E-1
5.591846208E0,4.958568608E-2,3.072141265E-2,1.478041631E-1,1.588981312E-1
5.601762208E0,4.948624687E-2,3.364082236E-2,1.593278557E-1,1.701938870E-1
5.611679208E0,5.220469052E-2,2.787698891E-2,1.452524382E-1,1.568461891E-1
5.621595208E0,4.915357685E-2,3.350758807E-2,1.471954679E-1,1.587618920E-1
5.631512208E0,4.209363040E-2,3.480503954E-2,1.503365922E-1,1.599511033E-1
5.641428208E0,4.580158738E-2,3.235545361E-2,1.458465153E-1,1.562557737E-1
5.651345208E0,5.287079802E-2,3.527465775E-2,1.424019206E-1,1.559420717E-1
5.661261208E0,4.565597344E-2,3.316296323E-2,1.516849601E-1,1.618412097E-1
5.671178208E0,4.444633070E-2,3.142003158E-2,1.537829411E-1,1.631315042E-1
5.681094208E0,5.128298661E-2,3.989137255E-2,1.470492876E-1,1.607630533E-1
5.691011208E0,4.670346558E-2,3.501709247E-2,1.391146159E-1,1.508651279E-1
5.700927208E0,3.783018792E-2,3.696446196E-2,1.452500993E-1,1.545803542E-1
5.710844208E0,4.449826129E-2,3.378065761E-2,1.482432890E-1,1.584212764E-1
5.720761208E0,4.874357739E-2,3.232961623E-2,1.507868278E-1,1.617337561E-1
5.730677208E0,5.420286683E-2,2.784403894E-2,1.533291972E-1,1.649941938E-1
5.740594208E0,4.865570471E-2,2.995460514E-2,1.570708305E-1,1.671403654E-1
5.750510208E0,4.293776734E-2,3.351962511E-2,1.459938651E-1,1.558249845E-1
5.760427208E0,3.914107885E-2,3.106701507E-2,1.518293864E-1,1.598416280E-1
5.770343208E0,4.360612236E-2,2.913647003E-2,1.474872440E-1,1.565340696E-1
5.780260208E0,4.868156036E-2,3.637376984E-2,1.477872062E-1,1.597936287E-1
5.790176208E0,4.987484917E-2,3.454770723E-2,1.416505533E-1,1.540971250E-1
5.800093208E0,4.543668458E-2,2.511958363E-2,1.518311405E-1,1.604623975E-1
5.810009208E0,4.981842354E-2,3.227827950E-2,1.485368192E-1,1.599592114E-1
5.819926208E0,4.683124552E-2,3.437119898E-2,1.434450638E-1,1.547612071E-1
5.829842208E0,4.162709568E-2,3.677167743E-2,1.438929605E-1,1.542405765E-1
5.839759208E0,4.027733903E-2,3.449632939E-2,1.545231986E-1,1.633697637E-1
5.849675208E0,4.384057743E-2,3.608779075E-2,1.456915641E-1,1.563660984E-1
5.859592208E0,4.518196525E-2,2.910781867E-2,1.432947904E-1,1.530427131E-1
5.869509208E0,4.391443508E-2,1.884888795E-2,1.567685294E-1,1.638906038E-1
5.879425208E0,4.642190387E-2,2.960448939E-2,1.507827348E-1,1.605205658E-1
5.889342208E0,4.750234142E-2,3.037882063E-2,1.385076749E-1,1.495450474E-1
5.899258208E0,4.453133460E-2,3.603287260E-2,1.518282169E-1,1.622751217E-1
5.909175208E0,4.804713747E-2,3.923270655E-2,1.474854898E-1,1.599990700E-1
5.919091208E0,5.349074906E-2,3.442684803E-2,1.477836978E-1,1.608927887E-1
5.929008208E0,3.905346198E-2,3.789916679E-2,1.461382914E-1,1.559420403E-1
5.938924208E0,4.113698937E-2,3.118972437E-2,1.573655301E-1,1.656169100E-1
5.948841208E0,3.910235932E-2,3.383575391E-2,1.494308585E-1,1.581247426E-1
5.958757208E0,4.041515060E-2,3.257166354E-2,1.486824149E-1,1.574825646E-1
5.968674208E0,4.490844347E-2,3.366399652E-2,1.582595694E-1,1.679170160E-1
5.978591208E0,4.568800522E-2,3.118758192E-2,1.479310477E-1,1.579356007E-1
5.988507208E0,4.875700772E-2,2.929790800E-2,1.509242374E-1,1.612877511E-1
5.998424208E0,4.733436188E-2,3.343439737E-2,1.516767740E-1,1.623707009E-1
6.008340208E0,4.044579366E-2,3.288754110E-2,1.389538175E-1,1.484102961E-1
6.018257458E0,3.882264314E-2,2.715436442E-2,1.527257645E-1,1.599053354E-1
6.028173458E0,3.606049156E-2,3.356247424E-2,1.438929605E-1,1.520920209E-1
6.038090458E0,4.141537165E-2,3.425992829E-2,1.465873575E-1,1.561308076E-1
6.048006458E0,4.419890212E-2,2.777725277E-2,1.531736612E-1,1.618248721E-1
6.057923458E0,4.540390363E-2,2.969323916E-2,1.509294999E-1,1.603836552E-1
6.067839458E0,4.100942871E-2,3.811214249E-2,1.504792643E-1,1.605562756E-1
6.077756458E0,4.687860796E-2,2.975254272E-2,1.431404239E-1,1.535317512E-1
6.087673458E0,3.488986071E-2,3.199729795E-2,1.534689456E-1,1.606046286E-1
6.097589458E0,3.465482092E-2,2.540440698E-2,1.501740396E-1,1.562004567E-1
6.107506458E0,3.919405097E-2,3.530746154E-2,1.513733035E-1,1.603018013E-1
6.117422458E0,4.104670471E-2,2.996934651E-2,1.534677762E-1,1.616643190E-1
6.127339458E0,4.775534313E-2,3.244597582E-2,1.420914334E-1,1.533730406E-1
6.137255458E0,4.316917090E-2,2.726268866E-2,1.459804165E-1,1.546515875E-1
6.147172458E0,4.692830930E-2,3.026297267E-2,1.470270681E-1,1.572738773E-1
6.157088458E0,4.840964656E-2,2.745451845E-2,1.509189749E-1,1.608532917E-1
6.167005458E0,3.651204279E-2,3.185683229E-2,1.503219742E-1,1.579388583E-1
6.176921458E0,4.748293597E-2,2.589721763E-2,1.542156351E-1,1.634250813E-1
6.186838458E0,4.643451193E-2,2.982249461E-2,1.465809256E-1,1.566253901E-1
6.196755458E0,3.872777207E-2,3.010309700E-2,1.525667202E-1,1.602580447E-1
6.206671458E0,3.642952396E-2,3.025742238E-2,1.461295205E-1,1.536113882E-1
6.216588458E0,4.318795508E-2,3.412340038E-2,1.446361417E-1,1.547553534E-1
6.226504458E0,4.498898886E-2,2.733121072E-2,1.458365750E-1,1.550461570E-1
6.236421458E0,4.289725710E-2,2.729049948E-2,1.543705863E-1,1.625276098E-1
6.246337458E0,4.849245775E-2,3.279259237E-2,1.449413663E-1,1.563165770E-1
6.256254458E0,4.793470647E-2,3.007494814E-2,1.455360281E-1,1.561504854E-1
6.266170458E0,4.328975145E-2,2.974722998E-2,1.468808877E-1,1.559900492E-1
6.276087458E0,4.065782832E-2,2.560820986E-2,1.467294449E-1,1.543967921E-1
6.286004458E0,4.446551688E-2,2.743715496E-2,1.564580423E-1,1.649518071E-1
6.295920458E0,4.674328147E-2,2.938093389E-2,1.540636075E-1,1.636574740E-1
6.305837458E0,4.578839460E-2,3.960033653E-2,1.492723989E-1,1.610807649E-1
6.315753458E0,4.554211719E-2,3.262353931E-2,1.465791714E-1,1.569198306E-1
6.325670458E0,4.390456790E-2,2.627148968E-2,1.425358218E-1,1.514406245E-1
6.335586458E0,3.627864752E-2,2.879605701E-2,1.551067507E-1,1.618748198E-1
6.345503458E0,4.679424360E-2,3.051147020E-2,1.450752676E-1,1.554589473E-1
6.355419458E0,4.404956058E-2,2.776750437E-2,1.554032046E-1,1.638949483E-1
6.365336458E0,3.851029219E-2,1.994910553E-2,1.416289186E-1,1.481207616E-1
6.375253458E0,3.403818634E-2,2.272317081E-2,1.470153737E-1,1.526055724E-1
6.385169458E0,4.368191689E-2,2.855712059E-2,1.480637795E-1,1.569920437E-1
6.395086458E0,4.355020836E-2,2.781890505E-2,1.426744008E-1,1.517448410E-1
6.405002458E0,5.071260899E-2,2.914107928E-2,1.473147511E-1,1.585011266E-1
6.414919458E0,5.540048623E-2,3.695177168E-2,1.565936977E-1,1.701653121E-1
6.424835458E0,4.542083315E-2,3.113306577E-2,1.516498768E-1,1.613381697E-1
6.434752458E0,4.481855166E-2,3.256446416E-2,1.579362184E-1,1.673708337E-1
6.444668458E0,4.049361292E-2,3.879429328E-2,1.562878883E-1,1.660440722E-1
6.454585458E0,4.192460932E-2,2.855305952E-2,1.511967176E-1,1.594785173E-1
6.464502458E0,4.427794003E-2,3.247983942E-2,1.610755885E-1,1.701787917E-1
6.474418458E0,4.512308196E-2,2.743006064E-2,1.493957752E-1,1.584537737E-1
6.484335458E0,4.769561931E-2,3.173357938E-2,1.476000953E-1,1.583277622E-1
6.494251458E0,4.193567335E-2,2.674408631E-2,1.498442566E-1,1.578833370E-1
6.504168458E0,3.600068551E-2,2.619075699E-2,1.495454639E-1,1.560315702E-1
6.514084458E0,2.991828388E-2,2.713995195E-2,1.484982276E-1,1.538941334E-1
6.524001458E0,4.055651617E-2,3.353325186E-2,1.399665552E-1,1.495324265E-1
6.533917458E0,4.285057073E-2,3.902766571E-2,1.398162818E-1,1.513536348E-1
6.543834458E0,4.632118559E-2,2.916978089E-2,1.431100184E-1,1.532220797E-1
6.553751458E0,5.002578042E-2,1.884131854E-2,1.522404456E-1,1.613528037E-1
6.563667458E0,4.397276105E-2,2.289303700E-2,1.455038685E-1,1.537175026E-1
6.573584458E0,4.392098579E-2,2.541817078E-2,1.571766651E-1,1.651654941E-1
6.583500458E0,4.437280197E-2,2.406323387E-2,1.478942102E-1,1.562711816E-1
6.593417458E0,3.696467210E-2,3.210712967E-2,1.585197705E-1,1.659089280E-1
6.603333458E0,4.119644824E-2,3.517795485E-2,1.486408997E-1,1.582047816E-1
6.613250458E0,4.042329102E-2,3.509261748E-2,1.526813257E-1,1.617934531E-1
6.623166458E0,4.009430291E-2,2.789175313E-2,1.525316370E-1,1.601605547E-1
6.633083458E0,4.084931550E-2,3.026544860E-2,1.616603100E-1,1.694659842E-1
6.643000458E0,3.719091366E-2,3.378659619E-2,1.445952111E-1,1.530766907E-1
6.652916458E0,4.001350170E-2,3.523914505E-2,1.499840051E-1,1.591793939E-1
6.662833458E0,3.932486415E-2,3.659289425E-2,1.547728747E-1,1.638295687E-1
6.672749458E0,3.622374765E-2,3.308132148E-2,1.505804211E-1,1.583698107E-1
6.682666458E0,3.806471609E-2,3.319919769E-2,1.487847412E-1,1.571241819E-1
6.692582458E0,3.824019651E-2,3.352128791E-2,1.484871179E-1,1.569535395E-1
6.702499458E0,4.072600320E-2,3.789431086E-2,1.558230346E-1,1.654551427E-1
6.712416458E0,4.172326410E-2,3.015571738E-2,1.475924939E-1,1.563129627E-1
6.722332458E0,4.334324433E-2,3.137801842E-2,1.475924939E-1,1.569928697E-1
6.732249458E0,4.298682913E-2,1.919277275E-2,1.556751001E-1,1.626375319E-1
6.742165458E0,4.199714220E-2,3.673451107E-2,1.613621020E-1,1.707363823E-1
6.752082458E0,4.389602548E-2,2.886275638E-2,1.631577820E-1,1.714070640E-1
6.761998458E0,3.780803245E-2,2.511884359E-2,1.579175073E-1,1.643117243E-1
6.771915458E0,4.513431044E-2,3.623016131E-2,1.450448620E-1,1.561657535E-1
6.781831458E0,4.390295992E-2,2.737168442E-2,1.526784021E-1,1.612059970E-1
6.791748458E0,4.467152160E-2,3.642207332E-2,1.495355237E-1,1.602591186E-1
6.801665458E0,4.366777394E-2,3.972368994E-2,1.556721765E-1,1.664892566E-1
6.811581458E0,4.380321921E-2,3.162076010E-2,1.556698376E-1,1.647777073E-1
6.821498458E0,4.419696523E-2,3.402496615E-2,1.517802697E-1,1.617044228E-1
6.831414458E0,4.367789693E-2,2.387173299E-2,1.481871557E-1,1.563235473E-1
6.841331458E0,4.064782410E-2,3.515689117E-2,1.469896460E-1,1.565062574E-1
6.851247458E0,3.937213523E-2,3.071196117E-2,1.416002673E-1,1.501466792E-1
6.861164458E0,3.932022292E-2,2.884719274E-2,1.525275439E-1,1.601339817E-1
6.871081458E0,4.554391704E-2,3.748979317E-2,1.493805724E-1,1.606060036E-1
6.880997458E0,4.294305724E-2,2.138252303E-2,1.400987023E-1,1.480843167E-1
6.890914458E0,3.998849572E-2,2.421045579E-2,1.502769506E-1,1.573797568E-1
6.900830458E0,3.488405004E-2,3.666061231E-2,1.516247338E-1,1.598466682E-1
6.910747458E0,3.713369317E-2,2.823438627E-2,1.441414672E-1,1.515019944E-1
6.920663458E0,4.077917632E-2,3.060321667E-2,1.495290917E-1,1.579824274E-1
6.930580458E0,3.553340161E-2,3.224494123E-2,1.553634435E-1,1.626043002E-1
6.940497458E0,3.393731274E-2,3.401802259E-2,1.541647643E-1,1.614798489E-1
6.950413458E0,4.043191566E-2,3.163979553E-2,1.535642552E-1,1.619191062E-1
6.960330458E0,3.846974541E-2,2.732944742E-2,1.499682176E-1,1.572173219E-1
6.970246458E0,4.268620002E-2,2.349969932E-2,1.460739720E-1,1.539868593E-1
6.980163458E0,4.154870644E-2,3.689796359E-2,1.495162278E-1,1.595081726E-1
6.990079458E0,3.153020591E-2,3.107734820E-2,1.558008152E-1,1.619686682E-1
6.999996458E0,3.994430356E-2,2.945990328E-2,1.517568809E-1,1.596671043E-1
7.009913458E0,3.618456217E-2,2.741085619E-2,1.531058335E-1,1.596936875E-1
7.019828500E0,4.049857392E-2,2.537965225E-2,1.543004197E-1,1.615329092E-1
7.029745500E0,4.596720977E-2,2.643716231E-2,1.531029099E-1,1.620259515E-1
7.039661500E0,4.836909064E-2,3.823773885E-2,1.554985142E-1,1.672766616E-1
7.049578500E0,4.248692874E-2,3.255768048E-2,1.523550510E-1,1.614843746E-1
7.059494500E0,3.858829770E-2,3.046863478E-2,1.569954014E-1,1.645142866E-1
7.069411500E0,2.846775413E-2,3.467469688E-2,1.444197947E-1,1.512277247E-1
7.079328500E0,2.882670921E-2,3.294323583E-2,1.532496750E-1,1.593791042E-1
7.089244500E0,3.839756884E-2,2.778871423E-2,1.454664463E-1,1.529937022E-1
7.099161500E0,4.663045761E-2,3.364093656E-2,1.519030613E-1,1.624212185E-1
7.109077500E0,3.895883759E-2,2.855121856E-2,1.514534104E-1,1.589688606E-1
7.118994500E0,4.469827261E-2,3.353680131E-2,1.547489011E-1,1.645292528E-1
7.128910500E0,4.142996228E-2,3.557047661E-2,1.544471848E-1,1.638158523E-1
7.138827500E0,3.716218008E-2,3.257543683E-2,1.472586179E-1,1.553296084E-1
7.148744500E0,4.066437903E-2,2.912668965E-2,1.508499777E-1,1.589266232E-1
7.158660500E0,3.663002864E-2,2.780643860E-2,1.474047983E-1,1.544122132E-1
7.168577500E0,2.962094382E-2,3.455019230E-2,1.502471298E-1,1.569882674E-1
7.178493500E0,4.078212733E-2,3.490410416E-2,1.517428476E-1,1.609576658E-1
7.188410500E0,3.554304038E-2,2.663776292E-2,1.462043649E-1,1.528024687E-1
7.198327500E0,3.953358234E-2,2.340284111E-2,1.433591098E-1,1.505404645E-1
7.208243500E0,4.147815613E-2,3.691052140E-2,1.472492623E-1,1.573695310E-1
7.218160500E0,3.766607302E-2,4.116546257E-2,1.535373580E-1,1.633617112E-1
7.228076500E0,3.413154080E-2,3.283496184E-2,1.532362264E-1,1.603883970E-1
7.237993500E0,3.389666545E-2,3.043478488E-2,1.475468856E-1,1.544193754E-1
7.247909500E0,3.429705354E-2,1.976189413E-2,1.487467343E-1,1.539233942E-1
7.257826500E0,3.301519769E-2,3.172824380E-2,1.450086093E-1,1.520663720E-1
7.267743500E0,3.645618360E-2,2.785696220E-2,1.469545627E-1,1.539503399E-1
7.277659500E0,3.687548378E-2,3.377821365E-2,1.471065903E-1,1.553741224E-1
7.287576500E0,3.762848639E-2,3.129441238E-2,1.487514120E-1,1.565957401E-1
7.297492500E0,3.879961973E-2,3.500751765E-2,1.442630893E-1,1.534365527E-1
7.307409500E0,3.887087354E-2,2.978843001E-2,1.357290781E-1,1.442937213E-1
7.317325500E0,3.840137866E-2,4.443092695E-2,1.611738217E-1,1.715394239E-1
7.327242500E0,3.646018529E-2,3.163381127E-2,1.599768966E-1,1.671007199E-1
7.337159500E0,3.824267244E-2,2.571312626E-2,1.517446017E-1,1.585878022E-1
7.347075500E0,3.248246153E-2,3.333238173E-2,1.466551852E-1,1.538632553E-1
7.356992500E0,3.640788012E-2,2.854836348E-2,1.474024594E-1,1.544928083E-1
7.366908500E0,2.948244704E-2,3.294307137E-2,1.424615622E-1,1.491635255E-1
7.376825500E0,3.307746140E-2,3.419146105E-2,1.568316793E-1,1.638882244E-1
7.386742500E0,4.164244462E-2,2.442757479E-2,1.586285287E-1,1.658125741E-1
7.396658500E0,4.021080868E-2,3.259621271E-2,1.442566574E-1,1.532625375E-1
7.406575500E0,3.751901555E-2,3.813688352E-2,1.429088742E-1,1.525943797E-1
7.416491500E0,3.263384960E-2,3.101785735E-2,1.602715963E-1,1.664754042E-1
7.426408500E0,4.620958599E-2,2.392047044E-2,1.535350192E-1,1.621126672E-1
7.436324500E0,4.063942786E-2,3.014705162E-2,1.408108932E-1,1.496265867E-1
7.446241500E0,4.135797758E-2,3.736908928E-2,1.461967635E-1,1.564622153E-1
7.456158500E0,4.363758769E-2,3.241401713E-2,1.490367562E-1,1.586406702E-1
7.466074500E0,3.604844995E-2,2.950269302E-2,1.490367562E-1,1.561468998E-1
7.475991500E0,3.682193608E-2,3.084851650E-2,1.518837655E-1,1.592989773E-1
7.485907500E0,3.559838793E-2,3.442258139E-2,1.448478109E-1,1.530785669E-1
7.495824500E0,4.303802881E-2,3.365205541E-2,1.414055550E-1,1.515924264E-1
7.505741500E0,3.529869986E-2,3.001415994E-2,1.527807283E-1,1.596521186E-1
7.515657500E0,2.554851344E-2,3.106899308E-2,1.586180037E-1,1.636388706E-1
7.525574500E0,3.840376323E-2,2.568223652E-2,1.433497542E-1,1.506106847E-1
7.535490500E0,3.068167442E-2,3.672192585E-2,1.458944625E-1,1.535417180E-1
7.545407500E0,3.903567365E-2,3.291401345E-2,1.535285872E-1,1.617966106E-1
7.555323500E0,4.102644045E-2,3.491250040E-2,1.506856710E-1,1.600256946E-1
7.565240500E0,4.388183685E-2,2.966594911E-2,1.503845394E-1,1.594402516E-1
7.575157500E0,3.333557943E-2,2.584555656E-2,1.557692403E-1,1.613793973E-1
7.585073500E0,3.970570061E-2,2.861729667E-2,1.527742964E-1,1.604228100E-1
7.594990500E0,2.922089377E-2,3.730794020E-2,1.437929732E-1,1.514006677E-1
7.604906500E0,3.861333109E-2,3.501128180E-2,1.472352290E-1,1.561889620E-1
7.614823500E0,3.326128324E-2,3.227839370E-2,1.439409077E-1,1.512190219E-1
7.624740500E0,3.609904664E-2,2.742070510E-2,1.470843709E-1,1.539118202E-1
7.634656500E0,3.974555304E-2,3.384746205E-2,1.571146846E-1,1.655608160E-1
7.644573500E0,4.678482410E-2,3.053375814E-2,1.475334370E-1,1.577569180E-1
7.654489500E0,3.398258298E-2,2.892980750E-2,1.485830122E-1,1.551407787E-1
7.664406500E0,3.647789139E-2,2.533679398E-2,1.578648823E-1,1.639936303E-1
7.674323500E0,4.148270600E-2,3.126653760E-2,1.443923128E-1,1.534521139E-1
7.684239500E0,3.958232436E-2,2.091504271E-2,1.364570564E-1,1.436131180E-1
7.694156500E0,4.081331857E-2,2.275172167E-2,1.512750703E-1,1.583272393E-1
7.704072500E0,3.891011383E-2,2.741797335E-2,1.460359651E-1,1.535976735E-1
7.713989500E0,4.060100983E-2,2.390881256E-2,1.475316828E-1,1.548730795E-1
7.723906500E0,3.152242181E-2,3.202287038E-2,1.481292683E-1,1.547947267E-1
7.733822500E0,3.631057880E-2,3.264338787E-2,1.556148738E-1,1.630951803E-1
7.743739500E0,4.257881225E-2,1.610410442E-2,1.575596577E-1,1.640040950E-1
7.753655500E0,3.469943334E-2,2.574332165E-2,1.569591486E-1,1.627972470E-1
7.763572500E0,3.135325455E-2,3.242829256E-2,1.517188740E-1,1.582821451E-1
7.773488500E0,3.286487857E-2,2.896229609E-2,1.547097248E-1,1.607918337E-1
7.783405500E0,3.455550048E-2,3.897808772E-2,1.581531501E-1,1.665106387E-1
7.793322500E0,3.592848153E-2,2.656263534E-2,1.533636957E-1,1.597399529E-1
7.803238500E0,3.949615102E-2,3.167363172E-2,1.413903522E-1,1.501812125E-1
7.813155500E0,3.444081282E-2,2.638027073E-2,1.524679023E-1,1.585198710E-1
7.823071500E0,3.527617894E-2,3.520061738E-2,1.524673176E-1,1.604050348E-1
7.832988500E0,4.413466497E-2,2.848332691E-2,1.499237788E-1,1.588593970E-1
7.842905500E0,3.905855088E-2,3.437778623E-2,1.413915217E-1,1.506617569E-1
7.852821500E0,2.973216883E-2,3.138581167E-2,1.521696943E-1,1.581919306E-1
7.862738500E0,3.691910950E-2,3.996053415E-2,1.533666193E-1,1.627304055E-1
7.872654500E0,3.810407516E-2,3.502526030E-2,1.496255708E-1,1.583240374E-1
7.882571500E0,3.667232045E-2,3.385340062E-2,1.508219111E-1,1.588652281E-1
7.892488500E0,2.800175845E-2,3.662699082E-2,1.470779389E-1,1.541348599E-1
7.902404500E0,3.009643209E-2,2.974299075E-2,1.520176667E-1,1.577967418E-1
7.912321500E0,4.298374107E-2,2.567848608E-2,1.476772785E-1,1.559344902E-1
7.922237500E0,3.509082220E-2,2.416029308E-2,1.458845222E-1,1.519782201E-1
7.932154500E0,2.973818050E-2,2.601295138E-2,1.638477534E-1,1.685441168E-1
7.942071500E0,4.322235315E-2,2.996242122E-2,1.542682600E-1,1.629865471E-1
7.951987500E0,3.623444622E-2,3.106237384E-2,1.529198921E-1,1.601945678E-1
7.961904500E0,3.804125413E-2,3.832975484E-2,1.559136665E-1,1.650011470E-1
7.971820500E0,3.897182023E-2,2.967587567E-2,1.442379463E-1,1.523287416E-1
7.981737500E0,3.683195857E-2,3.635747073E-2,1.524708259E-1,1.610149422E-1
7.991654500E0,3.456653710E-2,3.238379433E-2,1.533677888E-1,1.605155265E-1
8.001570500E0,3.618793345E-2,2.478687249E-2,1.500740522E-1,1.563527317E-1
8.011487500E0,3.510607065E-2,2.537886196E-2,1.572591108E-1,1.631163718E-1
8.021404125E0,3.012073458E-2,3.111756151E-2,1.439344758E-1,1.503086644E-1
8.031321125E0,3.257217061E-2,2.060756596E-2,1.494735432E-1,1.543630726E-1
8.041238125E0,3.192108314E-2,2.822636005E-2,1.521685249E-1,1.580219697E-1
8.051154125E0,4.330754891E-2,3.139865727E-2,1.547114789E-1,1.636980794E-1
8.061071125E0,4.073536788E-2,2.826741390E-2,1.506698835E-1,1.586185067E-1
8.070987125E0,4.344222673E-2,2.296620942E-2,1.431831086E-1,1.513805682E-1
8.080904125E0,4.218179544E-2,2.153422174E-2,1.508160639E-1,1.580775496E-1
8.090821125E0,3.829397262E-2,2.256013856E-2,1.508131403E-1,1.572259249E-1
8.100737125E0,3.500093954E-2,3.070237722E-2,1.457243085E-1,1.529812924E-1
8.110654125E0,3.956597957E-2,2.531417257E-2,1.567977655E-1,1.636820495E-1
8.120570125E0,3.127326647E-2,2.927149503E-2,1.502102923E-1,1.561984940E-1
8.130487125E0,3.683440709E-2,3.035741891E-2,1.452682257E-1,1.529091358E-1
8.140404125E0,3.562839146E-2,2.197046514E-2,1.541021991E-1,1.596858521E-1
8.150320125E0,3.786649548E-2,2.289444398E-2,1.593430585E-1,1.653730248E-1
8.160237125E0,3.451244121E-2,2.683474100E-2,1.550009161E-1,1.610481168E-1
8.170153125E0,3.574703512E-2,2.824513053E-2,1.541039532E-1,1.606974372E-1
8.180070125E0,3.786877954E-2,2.873921568E-2,1.508084625E-1,1.581239367E-1
8.189987125E0,3.648297116E-2,3.308978167E-2,1.555979168E-1,1.632073913E-1
8.199903125E0,3.450515960E-2,2.364160851E-2,1.442233282E-1,1.501662415E-1
8.209820125E0,2.932608884E-2,1.952997437E-2,1.466201019E-1,1.507942097E-1
8.219736125E0,3.262140599E-2,2.954839724E-2,1.418283087E-1,1.485009531E-1
8.229653125E0,3.380025035E-2,3.487879212E-2,1.579952753E-1,1.652921476E-1
8.239570125E0,3.720110974E-2,3.481211558E-2,1.523065192E-1,1.606022470E-1
8.249486125E0,3.282598545E-2,2.679887198E-2,1.482684320E-1,1.542052295E-1
8.259403125E0,2.870945427E-2,2.974873289E-2,1.472223651E-1,1.529171170E-1
8.269319125E0,3.494476059E-2,2.807902849E-2,1.551546979E-1,1.615009239E-1
8.279236125E0,2.822321260E-2,2.438729752E-2,1.505125934E-1,1.550655693E-1
8.289153125E0,3.506544163E-2,2.559253201E-2,1.532058209E-1,1.592375159E-1
8.299069125E0,3.261829052E-2,3.037885718E-2,1.600920868E-1,1.661815396E-1
8.308986125E0,2.796741519E-2,1.672366717E-2,1.388362885E-1,1.426091594E-1
8.318902125E0,3.426845700E-2,3.240440120E-2,1.479673004E-1,1.553019458E-1
8.328819125E0,4.142883852E-2,3.004543341E-2,1.642839557E-1,1.720706100E-1
8.338736125E0,3.963533303E-2,2.165311208E-2,1.569492084E-1,1.633183116E-1
8.348652125E0,3.717282384E-2,2.984333445E-2,1.386889386E-1,1.466528729E-1
8.358569125E0,4.177250862E-2,2.718547801E-2,1.514124799E-1,1.594043028E-1
8.368485125E0,4.233943272E-2,3.307142233E-2,1.515621686E-1,1.608024797E-1
8.378402125E0,3.698811578E-2,2.583098420E-2,1.518615460E-1,1.584212411E-1
8.388319125E0,3.837634527E-2,2.880823567E-2,1.611410773E-1,1.681341878E-1
8.398235125E0,3.940894528E-2,2.138112518E-2,1.566492462E-1,1.629392642E-1
8.408152125E0,3.435528816E-2,2.661465728E-2,1.547027081E-1,1.606908638E-1
8.418068125E0,4.137373765E-2,3.548662389E-2,1.675730145E-1,1.762152145E-1
8.427985125E0,3.659882826E-2,3.310005084E-2,1.608370221E-1,1.682368428E-1
8.437902125E0,3.485996682E-2,2.731453702E-2,1.563428521E-1,1.624942726E-1
8.447818125E0,2.900896875E-2,2.565794317E-2,1.466107464E-1,1.516395769E-1
8.457735125E0,3.689268739E-2,2.384241011E-2,1.525959563E-1,1.587924960E-1
8.467652125E0,3.326748678E-2,2.157464975E-2,1.605294585E-1,1.653538577E-1
8.477568125E0,3.693214696E-2,2.627465996E-2,1.587326092E-1,1.650768986E-1
8.487485125E0,3.829623842E-2,2.305564898E-2,1.648704314E-1,1.708227853E-1
8.497401125E0,3.339034226E-2,3.605527475E-2,1.591816753E-1,1.665944283E-1
8.507318125E0,2.581198532E-2,2.814240226E-2,1.710035759E-1,1.752155141E-1
8.517235125E0,2.197559059E-2,3.424552496E-2,1.581291765E-1,1.632804919E-1
8.527151125E0,3.623328592E-2,2.698239690E-2,1.602254033E-1,1.664724620E-1
8.537068125E0,4.196866443E-2,1.910794244E-2,1.636664897E-1,1.700388253E-1
8.546984125E0,3.861787182E-2,2.618876528E-2,1.653107268E-1,1.717696942E-1
8.556901125E0,3.677560603E-2,2.470328014E-2,1.585729802E-1,1.646453379E-1
8.566818125E0,3.901506222E-2,2.487393205E-2,1.630618876E-1,1.694994595E-1
8.576734125E0,2.979354632E-2,2.951168312E-2,1.632109916E-1,1.685123812E-1
8.586651125E0,3.421753141E-2,2.772143471E-2,1.703960502E-1,1.759946912E-1
8.596567125E0,3.807774441E-2,2.767473921E-2,1.715882975E-1,1.779279338E-1
8.606484125E0,3.772583339E-2,1.883860507E-2,1.721841288E-1,1.772724055E-1
8.616401125E0,3.435065607E-2,2.359741635E-2,1.771221024E-1,1.819589096E-1
8.626317125E0,3.140285539E-2,2.599619546E-2,1.718835819E-1,1.766519381E-1
8.636234125E0,3.547862051E-2,3.178271427E-2,1.675443631E-1,1.741837738E-1
8.646151125E0,3.635961318E-2,2.929713598E-2,1.699405521E-1,1.762388575E-1
8.656067125E0,3.276289034E-2,2.177060000E-2,1.739827323E-1,1.783742054E-1
8.665984125E0,4.090922205E-2,2.478691360E-2,1.747329301E-1,1.811616747E-1
8.675900125E0,3.855944535E-2,1.828636753E-2,1.682939762E-1,1.736205186E-1
8.685817125E0,3.110455602E-2,1.977010764E-2,1.672444010E-1,1.712572341E-1
8.695734125E0,3.774209596E-2,2.210625758E-2,1.664971268E-1,1.721465819E-1
8.705650125E0,3.261750480E-2,2.778570840E-2,1.816151029E-1,1.866011597E-1
8.715567125E0,3.458352143E-2,2.934786515E-2,1.769759220E-1,1.826959061E-1
8.725484125E0,3.750287175E-2,2.299555970E-2,1.721852982E-1,1.777161728E-1
8.735400125E0,4.648476144E-2,2.122933055E-2,1.742786014E-1,1.816164872E-1
8.745317125E0,3.248636272E-2,2.643522999E-2,1.658948636E-1,1.711002365E-1
8.755233125E0,2.958491949E-2,2.915307521E-2,1.655937320E-1,1.707233239E-1
8.765150125E0,3.595910632E-2,2.935381286E-2,1.700808853E-1,1.763014782E-1
8.775067125E0,3.023099114E-2,2.169708040E-2,1.642401016E-1,1.684027526E-1
8.784983125E0,3.086090986E-2,2.034729634E-2,1.649902993E-1,1.690804752E-1
8.794900125E0,3.523291868E-2,2.872355611E-2,1.639407241E-1,1.701263127E-1
8.804817125E0,3.379885250E-2,2.758273692E-2,1.769601345E-1,1.822582207E-1
8.814733125E0,3.402720454E-2,1.963575415E-2,1.687237465E-1,1.732371673E-1
8.824650125E0,4.104415569E-2,1.428333172E-2,1.667783779E-1,1.723475083E-1
8.834566125E0,3.933036419E-2,2.574351808E-2,1.721683413E-1,1.784700087E-1
8.844483125E0,3.251882390E-2,2.589773383E-2,1.678261989E-1,1.728982347E-1
8.854400125E0,3.021539552E-2,2.645309597E-2,1.588454604E-1,1.638432687E-1
8.864316125E0,1.974965609E-2,2.294835257E-2,1.637846035E-1,1.665595153E-1
8.874233125E0,2.537443087E-2,1.717799126E-2,1.730670583E-1,1.757587887E-1
8.884150125E0,3.807895040E-2,1.975171632E-2,1.712702090E-1,1.765605314E-1
8.894066125E0,2.925116225E-2,2.882472664E-2,1.702223879E-1,1.751061298E-1
8.903983125E0,2.792912506E-2,1.372667679E-2,1.613930923E-1,1.643660181E-1
8.913899125E0,3.151323985E-2,2.478983264E-2,1.572018081E-1,1.622344863E-1
8.923816125E0,3.293288900E-2,2.954778054E-2,1.636401772E-1,1.695162356E-1
8.933733125E0,2.971166703E-2,3.381149253E-2,1.742710000E-1,1.799899487E-1
8.943649125E0,3.053033204E-2,3.229138092E-2,1.735213870E-1,1.791214845E-1
8.953566125E0,3.151841098E-2,2.189184749E-2,1.631946194E-1,1.676458977E-1
8.963483125E0,2.922075673E-2,2.329979307E-2,1.657410818E-1,1.699024402E-1
8.973399125E0,3.551371294E-2,2.333266995E-2,1.652920157E-1,1.706665982E-1
8.983316125E0,4.323209242E-2,2.882056964E-2,1.661895633E-1,1.741223995E-1
8.993233125E0,3.426869455E-2,1.696429380E-2,1.675373465E-1,1.718455503E-1
9.003149125E0,3.076328876E-2,2.416972172E-2,1.762204617E-1,1.805109595E-1
9.013066125E0,2.960831749E-2,2.267510030E-2,1.765204239E-1,1.804169412E-1
9.022983083E0,3.022947452E-2,2.058911069E-2,1.721771121E-1,1.760190062E-1
9.032899083E0,2.524708034E-2,1.698449867E-2,1.663386673E-1,1.690989074E-1
9.042816083E0,3.193082241E-2,1.745332202E-2,1.627455533E-1,1.667642377E-1
9.052732083E0,3.472923587E-2,2.211590092E-2,1.585513455E-1,1.638101402E-1
9.062649083E0,3.944280432E-2,1.636394007E-2,1.609434414E-1,1.665121758E-1
9.072566083E0,3.361196087E-2,2.402251806E-2,1.648353481E-1,1.699339203E-1
9.082482083E0,2.649653896E-2,2.275927280E-2,1.667795473E-1,1.703979709E-1
9.092399083E0,2.993929731E-2,2.212565846E-2,1.715695864E-1,1.755620382E-1
9.102316083E0,3.001425130E-2,1.918151686E-2,1.633407998E-1,1.671795524E-1
9.112232083E0,3.001264332E-2,2.329750900E-2,1.664836782E-1,1.707640120E-1
9.122149083E0,3.091551737E-2,2.198376755E-2,1.601967520E-1,1.646270166E-1
9.132066083E0,3.488393127E-2,2.102180008E-2,1.610942996E-1,1.661631069E-1
9.141982083E0,2.979350978E-2,2.894637157E-2,1.590015811E-1,1.643382136E-1
9.151899083E0,3.157738564E-2,2.275175365E-2,1.706755471E-1,1.750568935E-1
9.161816083E0,3.183225115E-2,2.448592817E-2,1.706749624E-1,1.753362361E-1
9.171732083E0,2.796659293E-2,2.959395527E-2,1.708252358E-1,1.756109157E-1
9.181649083E0,3.363618113E-2,2.586250435E-2,1.738184255E-1,1.789220693E-1
9.191565083E0,3.578751795E-2,1.513667802E-2,1.696288955E-1,1.740224918E-1
9.201482083E0,3.886001964E-2,1.595322798E-2,1.679817349E-1,1.731544682E-1
9.211399083E0,3.231282832E-2,3.111970854E-2,1.735213870E-1,1.792267471E-1
9.221316083E0,3.586938811E-2,2.161375757E-2,1.696318191E-1,1.747247023E-1
9.231232083E0,4.196293599E-2,1.779529278E-2,1.712801492E-1,1.772412197E-1
9.241149083E0,2.826635409E-2,1.876962163E-2,1.679875821E-1,1.713800257E-1
9.251065083E0,3.537438476E-2,3.056744359E-2,1.618515140E-1,1.684684786E-1
9.260982083E0,3.128711706E-2,2.708782494E-2,1.678402323E-1,1.728669359E-1
9.270899083E0,3.193455001E-2,2.511590171E-2,1.687366104E-1,1.735588307E-1
9.280815083E0,3.357782775E-2,1.980074613E-2,1.639459866E-1,1.685165469E-1
9.290732083E0,3.485506064E-2,1.993158215E-2,1.675402701E-1,1.722843154E-1
9.300649083E0,3.518541919E-2,2.766900619E-2,1.696364969E-1,1.754426650E-1
9.310565083E0,3.965847521E-2,2.452746168E-2,1.727793753E-1,1.789611789E-1
9.320482083E0,3.119795616E-2,2.377101470E-2,1.675414395E-1,1.720712282E-1
9.330399083E0,3.191081397E-2,2.056705572E-2,1.762257242E-1,1.802687153E-1
9.340315083E0,3.726191165E-2,2.449295397E-2,1.709866190E-1,1.767053444E-1
9.350232083E0,3.288289530E-2,2.265796522E-2,1.676911283E-1,1.723803431E-1
9.360149083E0,3.404446296E-2,2.975738951E-2,1.657428360E-1,1.717999283E-1
9.370065083E0,4.695862345E-2,2.237550816E-2,1.762222159E-1,1.837390679E-1
9.379982083E0,3.024583759E-2,1.679170044E-2,1.666409683E-1,1.701939606E-1
9.389899083E0,2.249177182E-2,1.915842036E-2,1.684378177E-1,1.710094246E-1
9.399815083E0,3.271697142E-2,1.899851271E-2,1.670888650E-1,1.713185119E-1
9.409732083E0,3.055830731E-2,2.069966875E-2,1.685857522E-1,1.725788002E-1
9.419649083E0,2.919526652E-2,1.886256038E-2,1.708310831E-1,1.743313475E-1
9.429565083E0,2.515695099E-2,1.833095255E-2,1.672403079E-1,1.701123646E-1
9.439482083E0,3.311401564E-2,1.383302302E-2,1.669415152E-1,1.707552636E-1
9.449399083E0,3.235239753E-2,2.304833539E-2,1.642471182E-1,1.689823045E-1
9.459315083E0,3.023181341E-2,2.358727051E-2,1.744236124E-1,1.785886850E-1
9.469232083E0,3.244046208E-2,1.655737327E-2,1.706808096E-1,1.745235484E-1
9.479149083E0,2.466447839E-2,2.798354072E-2,1.697826773E-1,1.738320240E-1
9.489065083E0,3.035835994E-2,2.053411945E-2,1.682857901E-1,1.722306222E-1
9.498982083E0,3.195825865E-2,2.600233046E-2,1.648447037E-1,1.699153549E-1
9.508899083E0,3.450758985E-2,2.561384237E-2,1.723291397E-1,1.776067991E-1
9.518815083E0,3.858288903E-2,2.280868177E-2,1.606534195E-1,1.667884783E-1
9.528732083E0,3.129690201E-2,2.012419766E-2,1.693359500E-1,1.733757289E-1
9.538649083E0,2.566181238E-2,1.707227999E-2,1.621532303E-1,1.650565402E-1
9.548565083E0,3.886321734E-2,2.005952197E-2,1.690394962E-1,1.746055135E-1
9.558482083E0,3.503603197E-2,2.469374644E-2,1.732313651E-1,1.784556261E-1
9.568399083E0,2.967980884E-2,2.746652808E-2,1.717333084E-1,1.764302424E-1
9.578315083E0,3.188236361E-2,2.246463709E-2,1.670917886E-1,1.715832476E-1
9.588232083E0,3.622565713E-2,2.846988745E-2,1.697885245E-1,1.759288941E-1
9.598149083E0,3.065740848E-2,2.273899941E-2,1.762216312E-1,1.803080755E-1
9.608065083E0,3.410878234E-2,2.805772270E-2,1.693388736E-1,1.750037113E-1
9.617982083E0,2.730631437E-2,2.413405827E-2,1.664971268E-1,1.704387890E-1
9.627899083E0,3.331812914E-2,2.105032353E-2,1.729343265E-1,1.773682473E-1
9.637815083E0,3.100870737E-2,2.662711916E-2,1.793697721E-1,1.839675475E-1
9.647732083E0,3.124827876E-2,2.044682692E-2,1.702393448E-1,1.742870110E-1
9.657649083E0,3.160173381E-2,2.769894577E-2,1.670964664E-1,1.722995365E-1
9.667565083E0,3.820568880E-2,2.196286376E-2,1.766771293E-1,1.820902250E-1
9.677482083E0,3.371846242E-2,2.463010315E-2,1.684436649E-1,1.735420552E-1
9.687399083E0,3.132541632E-2,2.405674711E-2,1.633571720E-1,1.680641974E-1
9.697315083E0,4.008412510E-2,2.422940443E-2,1.690470976E-1,1.754158554E-1
9.707232083E0,3.120498195E-2,2.691851150E-2,1.820694315E-1,1.866752128E-1
9.717149083E0,2.384307249E-2,2.662796883E-2,1.691956168E-1,1.729297476E-1
9.727065083E0,2.390564684E-2,2.195921838E-2,1.723402494E-1,1.753706041E-1
9.736982083E0,3.177795427E-2,3.285545907E-2,1.706960124E-1,1.767100682E-1
9.746899083E0,3.181308324E-2,2.464357916E-2,1.744364762E-1,1.790180508E-1
9.756815083E0,3.768374258E-2,2.613575662E-2,1.787756950E-1,1.845640575E-1
9.766732083E0,4.001687299E-2,1.385858632E-2,1.712877506E-1,1.764451871E-1
9.776649083E0,3.601893065E-2,2.082387640E-2,1.648511356E-1,1.700202756E-1
9.786566083E0,2.870000736E-2,2.452078306E-2,1.675461173E-1,1.717459189E-1
9.796482083E0,2.073198832E-2,2.084214895E-2,1.663503617E-1,1.689279531E-1
9.806399083E0,2.389741505E-2,1.646920365E-2,1.801223087E-1,1.824455185E-1
9.816316083E0,4.129992569E-2,1.898594577E-2,1.644038236E-1,1.705718828E-1
9.826232083E0,3.544749322E-2,2.498549509E-2,1.682933915E-1,1.737914421E-1
9.836149083E0,3.799890750E-2,2.435657680E-2,1.597582108E-1,1.660115831E-1
9.846066083E0,3.935085685E-2,2.584285222E-2,1.798141605E-1,1.858748914E-1
9.855982083E0,2.822445514E-2,2.523970279E-2,1.697856009E-1,1.739563530E-1
9.865899083E0,2.296603583E-2,2.230278342E-2,1.681390250E-1,1.711595299E-1
9.875816083E0,3.264480399E-2,2.794365631E-2,1.626069742E-1,1.681890580E-1
9.885732083E0,3.932444388E-2,1.707899516E-2,1.579812419E-1,1.636953780E-1
9.895649083E0,3.603281778E-2,1.299083667E-2,1.642862946E-1,1.686923602E-1
9.905566083E0,3.819395782E-2,8.072044663E-3,1.655329210E-1,1.700737612E-1
9.915483083E0,4.308276915E-2,2.368057472E-2,1.518252933E-1,1.595863851E-1
9.925399083E0,4.052088470E-2,3.621581736E-2,1.829886138E-1,1.908883452E-1
9.935316083E0,2.614489289E-2,3.816366651E-2,1.843276262E-1,1.900439282E-1
9.945233083E0,2.216109350E-2,3.322416256E-2,1.750165200E-1,1.795152955E-1
9.955149083E0,1.959611186E-2,2.667454099E-2,1.730249584E-1,1.761623540E-1
9.965066083E0,1.949584125E-2,1.894332962E-2,1.674344355E-1,1.696267306E-1
9.974983083E0,3.597034394E-2,2.950949955E-2,1.746060455E-1,1.806984984E-1
9.984899083E0,4.162433652E-2,1.819522406E-2,1.549915606E-1,1.615117191E-1
9.994816083E0,2.586842922E-2,1.919848292E-2,1.692090654E-1,1.722482662E-1
1.000473308E1,3.518939347E-2,2.407706619E-2,1.666620183E-1,1.720297267E-1
1.001464846E1,2.515615613E-2,2.830573600E-2,1.680086321E-1,1.722235388E-1
1.002456546E1,2.721213765E-2,2.800241626E-2,1.650177813E-1,1.695744789E-1
1.003448246E1,2.597911519E-2,2.834841611E-2,1.657662249E-1,1.701675305E-1
1.004439846E1,3.304698279E-2,2.078001771E-2,1.801363420E-1,1.843176984E-1
1.005431546E1,3.128112366E-2,2.869818924E-2,1.745972747E-1,1.796838977E-1
1.006423246E1,3.559040283E-2,2.293176109E-2,1.707053679E-1,1.758774149E-1
1.007414946E1,3.388664296E-2,2.186038673E-2,1.561849773E-1,1.613069379E-1
1.008406546E1,3.085308921E-2,2.668901285E-2,1.674098772E-1,1.723086867E-1
1.009398246E1,2.688266532E-2,1.872042736E-2,1.781857109E-1,1.811719616E-1
1.010389946E1,2.677052669E-2,2.608086131E-2,1.756357402E-1,1.795683314E-1
1.011381546E1,3.764565345E-2,2.499394615E-2,1.687465507E-1,1.746919888E-1
1.012373246E1,3.605015843E-2,2.668075366E-2,1.763789213E-1,1.819917592E-1
1.013364946E1,3.345200297E-2,1.880872488E-2,1.522807914E-1,1.570421729E-1
1.014356546E1,2.891315664E-2,2.446155716E-2,1.712930131E-1,1.754298570E-1
1.015348246E1,3.191046679E-2,1.310245454E-2,1.654528141E-1,1.690106088E-1
1.016339946E1,2.855395488E-2,2.530001591E-2,1.717414945E-1,1.759277127E-1
1.017331646E1,3.180497023E-2,2.316023648E-2,1.703942961E-1,1.748775824E-1
1.018323246E1,2.680322542E-2,2.282530522E-2,1.727887309E-1,1.763387449E-1
1.019314946E1,3.532952565E-2,2.346653922E-2,1.685945231E-1,1.738475397E-1
1.020306646E1,4.050587380E-2,2.845438319E-2,1.783225358E-1,1.850656762E-1
1.021298246E1,2.659225971E-2,2.977028537E-2,1.678443253E-1,1.725257537E-1
1.022289946E1,2.569627441E-2,2.178523174E-2,1.620047110E-1,1.654703032E-1
1.023281646E1,2.662991029E-2,2.286623117E-2,1.684372330E-1,1.720555669E-1
1.024273346E1,2.299358170E-2,2.585972692E-2,1.715789419E-1,1.750336070E-1
1.025264946E1,2.356059716E-2,1.966746616E-2,1.667871487E-1,1.695873343E-1
1.026256646E1,2.997186813E-2,2.113249518E-2,1.763672268E-1,1.801396512E-1
1.027248346E1,4.084015181E-2,2.423675913E-2,1.694827151E-1,1.760105941E-1
1.028239946E1,2.715832500E-2,2.499059313E-2,1.765175003E-1,1.803345010E-1
1.029231646E1,2.733232534E-2,3.028634783E-2,1.723262161E-1,1.770893662E-1
1.030223346E1,2.990824311E-2,2.056024006E-2,1.572076553E-1,1.613427202E-1
1.031214946E1,3.325999503E-2,2.703038975E-2,1.643915445E-1,1.698865772E-1
1.032206646E1,3.069113047E-2,2.501633002E-2,1.741236502E-1,1.785687761E-1
1.033198346E1,3.275611122E-2,2.244291103E-2,1.660398746E-1,1.707216653E-1
1.034190046E1,3.335493919E-2,2.436533392E-2,1.700820547E-1,1.750260747E-1
1.035181646E1,2.814052932E-2,2.312688908E-2,1.696353275E-1,1.735018349E-1
1.036173346E1,3.493908696E-2,2.000332475E-2,1.702352518E-1,1.749311686E-1
1.037165046E1,3.387560634E-2,2.482806795E-2,1.714321768E-1,1.765020706E-1
1.038156646E1,3.255333161E-2,3.031789538E-2,1.751726407E-1,1.807328089E-1
1.039148346E1,2.757840176E-2,2.455759311E-2,1.540677005E-1,1.584313730E-1
1.040140046E1,3.014302709E-2,2.865990368E-2,1.742733389E-1,1.791680463E-1
1.041131746E1,3.080325997E-2,2.059606339E-2,1.699335355E-1,1.739265509E-1
1.042123346E1,2.772051651E-2,2.292791929E-2,1.766706973E-1,1.802960116E-1
1.043115046E1,2.725418279E-2,1.970920066E-2,1.640968448E-1,1.675082611E-1
1.044106746E1,4.281009704E-2,2.538633543E-2,1.660463065E-1,1.733451653E-1
1.045098346E1,4.299500610E-2,2.451242337E-2,1.644009000E-1,1.716889204E-1
1.046090046E1,3.642703889E-2,2.326859726E-2,1.793721110E-1,1.845066692E-1
1.047081746E1,3.901558299E-2,1.989119982E-2,1.633560026E-1,1.691243895E-1
1.048073446E1,4.691751936E-2,2.586218001E-2,1.730851847E-1,1.811866086E-1
1.049065046E1,3.775261181E-2,2.366247119E-2,1.509318388E-1,1.573708747E-1
1.050056746E1,3.939918774E-2,1.624470712E-2,1.709883732E-1,1.762192108E-1
1.051048446E1,3.674626946E-2,1.672358951E-2,1.736827701E-1,1.783134078E-1
1.052040146E1,2.723879730E-2,2.286838733E-2,1.706878263E-1,1.743538048E-1
1.053031746E1,2.642216055E-2,2.542650763E-2,1.681390250E-1,1.720911665E-1
1.054023446E1,2.368198170E-2,2.370061970E-2,1.590068436E-1,1.624984059E-1
1.055015146E1,1.837389761E-2,1.606061575E-2,1.594611722E-1,1.613177267E-1
1.056006746E1,2.666111067E-2,1.551231138E-2,1.359635514E-1,1.394185566E-1
1.056998446E1,2.821004723E-2,2.544430052E-2,2.061693156E-1,2.096401819E-1
1.057990146E1,3.710555345E-2,2.597362429E-2,1.630636418E-1,1.692371192E-1
1.058981846E1,4.443099090E-2,3.026517908E-2,1.871658647E-1,1.947335485E-1
1.059973446E1,2.932761460E-2,3.985657705E-2,1.675619048E-1,1.747159055E-1
1.060965146E1,1.216519612E-2,9.628641078E-2,1.633752984E-1,1.900277691E-1
1.061956846E1,-5.054677648E-2,1.423234034E-1,1.645809942E-1,2.233782251E-1
1.062948446E1,-2.694136406E-1,3.145707004E-1,1.566667879E-1,4.428125085E-1
1.063940146E1,-1.804411647E-1,2.785692474E-1,2.045654243E-1,3.898805617E-1
1.064931846E1,-7.364055569E-2,1.076164326E-1,1.650464326E-1,2.103438921E-1
1.065923546E1,-4.097251816E-2,1.158899504E-1,1.783546954E-1,2.166093840E-1
1.066915146E1,3.411379998E-1,-6.978580161E-2,1.727963322E-1,3.887206779E-1
1.067906846E1,2.020939890E-1,-1.139275975E-1,1.525877702E-1,2.776769804E-1
1.068898546E1,1.360284738E-1,-1.283382157E-1,1.826605850E-1,2.614179271E-1
1.069890246E1,2.885420574E-1,-3.684840387E-1,1.769683206E-1,5.003546664E-1
1.070881846E1,4.994481476E-2,-1.706904575E-2,1.673946744E-1,1.755186995E-1
1.071873546E1,5.560661886E-2,3.051792041E-2,1.748872966E-1,1.860349591E-1
1.072865246E1,2.465023493E-2,-2.671172563E-4,1.808824468E-1,1.825545534E-1
1.073856846E1,2.712714289E-2,-3.074575625E-3,1.699656951E-1,1.721443360E-1
1.074848546E1,4.952622721E-2,8.552302066E-3,1.699727118E-1,1.772476003E-1
1.075840246E1,9.044211874E-2,1.554390462E-2,1.662433577E-1,1.898900834E-1
1.076831946E1,3.508302896E-2,-2.606199490E-2,1.762871200E-1,1.816237737E-1
1.077823546E1,1.598468875E-2,-1.464069709E-2,1.783880246E-1,1.797001603E-1
1.078815246E1,1.306645305E-2,-1.410256139E-2,1.664152658E-1,1.675221034E-1
1.079806946E1,1.043808393E-2,2.172300457E-2,1.724022299E-1,1.740786357E-1
1.080798646E1,-1.624068716E-2,3.659793747E-2,1.583285666E-1,1.633129019E-1
1.081790246E1,-2.108918010E-2,4.051986144E-2,1.747943258E-1,1.806645207E-1
1.082781946E1,4.810741860E-2,-5.748941316E-3,1.697025704E-1,1.764832470E-1
1.083773646E1,6.050496846E-2,-2.309366045E-2,1.801801962E-1,1.914655882E-1
1.084765346E1,4.264593646E-2,-2.241136347E-2,1.626631075E-1,1.696473744E-1
1.085756946E1,1.170955184E-2,2.082204914E-2,1.870629537E-1,1.885821306E-1
1.086748646E1,5.439033405E-2,-8.627854488E-3,1.761339229E-1,1.845424263E-1
1.087740346E1,5.771778348E-2,-2.848847520E-2,1.756836873E-1,1.871034306E-1
1.088732046E1,3.288660463E-2,6.611716258E-3,1.664059103E-1,1.697532637E-1
1.089723646E1,4.920985630E-2,2.447852779E-2,1.782365817E-1,1.865183297E-1
1.090715346E1,8.501480626E-2,-1.302655951E-2,1.771940231E-1,1.969642870E-1
1.091707046E1,7.669021670E-2,2.012867443E-3,1.688196409E-1,1.854333091E-1
1.092698746E1,2.040335104E-1,-4.343435583E-2,1.697265440E-1,2.689299470E-1
1.093690346E1,1.100735058E-1,3.579826678E-2,1.842586291E-1,2.175981042E-1
1.094682046E1,1.681446895E-1,-2.228744818E-2,1.769326526E-1,2.451010618E-1
1.095673746E1,1.908944879E-1,-2.685476771E-2,1.705036390E-1,2.573584562E-1
1.096665446E1,1.968934023E-1,-1.451675439E-2,1.940112001E-1,2.767997359E-1
1.097657046E1,1.431267834E-1,3.943174942E-3,1.431217128E-1,2.024466583E-1
1.098648746E1,-1.160262545E-1,9.256591883E-2,2.068902773E-1,2.546254659E-1
1.099640446E1,-6.240914164E-2,5.462869488E-2,2.839916629E-1,2.958554712E-1
1.100632146E1,2.902545059E-2,3.653852885E-2,5.845940959E-1,5.864535769E-1
1.101623846E1,1.316995151E-1,1.285671160E-2,1.521638471E-1,2.016529039E-1
1.102615546E1,6.114495534E-2,5.925836035E-2,1.221015573E-1,1.488591587E-1
1.103607246E1,1.588280101E-2,8.772883709E-2,3.120933813E-1,3.245780197E-1
1.104598846E1,-5.887415260E-5,8.066680756E-2,3.118413663E-1,3.221058445E-1
1.105590546E1,-4.396083639E-1,1.501788727E-1,2.174497640E-1,5.129265125E-1
1.106582246E1,-2.971347418E-1,9.439964220E-4,2.639263576E-1,3.974255505E-1
1.107573946E1,-2.897824163E-1,7.356165483E-2,7.149682939E-2,3.074035824E-1
1.108565646E1,-1.445651619E-1,8.008825298E-2,1.809952980E-1,2.450969445E-1
1.109557246E1,-5.978743287E-2,-1.591916339E-2,2.412508553E-1,2.490580898E-1
1.110548946E1,-2.474618409E-2,-5.827707879E-2,1.827716821E-1,1.934271939E-1
1.111540646E1,-2.710664109E-2,1.465769056E-2,3.633044654E-1,3.646090406E-1
1.112532346E1,-2.645107503E-1,3.546391111E-3,3.982374859E-1,4.780916325E-1
1.113523946E1,2.303462732E-1,2.882688280E-2,1.319956309E-1,2.670453919E-1
1.114515646E1,-7.076749887E-2,3.280521870E-2,2.086982363E-1,2.227985079E-1
1.115507346E1,2.812950184E-2,1.158561828E-2,2.331284881E-3,3.051115064E-2
1.116499046E1,1.122267977E-2,8.092433173E-2,-6.511634767E-2,1.044740865E-1
1.117490646E1,2.268440103E-1,2.153209755E-2,-3.106918037E-2,2.299720205E-1
1.118482346E1,6.666818957E-2,4.549420657E-2,1.839475572E-2,8.278126219E-2
1.119474046E1,2.739252243E-1,-6.468710722E-2,-2.570202112E-2,2.826305791E-1
1.120465746E1,9.189401893E-2,-3.633039538E-3,1.521919137E-1,1.778203821E-1
1.121457346E1,-1.603292279E-1,1.033199169E-1,2.007501161E-1,2.769134805E-1
1.122449046E1,1.348221658E-1,-3.435533384E-2,1.129459870E-1,1.792040773E-1
1.123440746E1,1.487706713E-1,-2.475508282E-2,8.487584352E-2,1.730590523E-1
1.124432446E1,5.751660272E-2,6.751889549E-2,1.888364142E-1,2.086292218E-1
1.125424046E1,5.903806650E-2,6.885829160E-2,1.775308228E-1,1.993593505E-1
1.126415746E1,8.747724236E-2,2.491666697E-2,1.732699567E-1,1.956925806E-1
1.127407446E1,8.361705677E-2,1.712333350E-2,1.775442713E-1,1.969948959E-1
1.128399146E1,4.229594406E-2,1.033332741E-2,1.900549740E-1,1.949785057E-1
1.129390746E1,3.428755182E-2,-1.946521645E-2,1.748814493E-1,1.792708905E-1
1.130382446E1,5.842272928E-2,-3.679618092E-2,1.902415001E-1,2.023833061E-1
1.131374146E1,7.397081374E-2,-3.718335796E-2,2.018575788E-1,2.181759966E-1
1.132365846E1,7.389012217E-2,-1.931178186E-2,1.928265542E-1,2.074000363E-1
1.133357546E1,6.739866212E-2,2.614326663E-3,1.743645555E-1,1.869556433E-1
1.134349146E1,-2.656159837E-2,3.207956096E-2,1.159438545E-1,1.231973787E-1
1.135340846E1,-4.307396178E-2,6.990503456E-2,8.193352461E-2,1.159964762E-1
1.136332546E1,1.775334357E-2,4.180890754E-2,3.869763333E-1,3.896329663E-1
1.137324246E1,-1.045646612E-3,2.371060565E-2,1.800626671E-1,1.816200713E-1
1.138315846E1,5.303981910E-2,1.770803679E-2,3.042312151E-1,3.093273820E-1
1.139307546E1,-4.534882103E-2,9.223116573E-2,-5.284128785E-2,1.155651557E-1
1.140299246E1,-1.643954913E-1,7.284837674E-2,5.776704079E-1,6.050089782E-1
1.141290946E1,-2.825415899E-1,6.780391071E-2,1.846199870E-1,3.442552250E-1
1.142282546E1,1.785276086E-1,-4.857936200E-2,2.535235763E-2,1.867479678E-1
1.143274246E1,1.966216895E-1,-3.371630626E-2,1.319266337E-1,2.391683816E-1
1.144265946E1,2.629470952E-2,-1.992274281E-3,1.760666800E-1,1.780304937E-1
1.145257646E1,8.886155239E-2,-1.629505713E-2,1.212443554E-1,1.512021763E-1
1.146249346E1,1.838561579E-1,-3.716424488E-2,7.208739817E-2,2.009498964E-1
1.147240946E1,2.552905683E-1,-3.562196866E-2,1.214402372E-1,2.849384672E-1
1.148232646E1,3.170716276E-1,-4.154519811E-3,3.831282806E-1,4.973318374E-1
1.149224346E1,1.370725307E-2,5.310751889E-2,4.117802221E-1,4.154169576E-1
1.150216046E1,-1.966095200E-1,1.739733037E-2,1.121618754E-1,2.270203884E-1
1.151207646E1,-3.244098832E-1,4.026330572E-2,1.463394356E-1,3.581593731E-1
1.152199346E1,-3.858954937E-2,2.402310278E-2,1.306618810E-1,1.383430155E-1
1.153191046E1,2.403172743E-1,-1.270395309E-2,1.865530765E-1,3.044927472E-1
1.154182746E1,3.351977769E-1,1.197361027E-1,3.574730372E-1,5.044613526E-1
1.155174446E1,-1.529108106E-2,-6.106393486E-2,4.467553425E-1,4.511684357E-1
1.156166046E1,1.725400963E-2,-6.651313785E-2,5.286824352E-1,5.331292672E-1
1.157157746E1,8.843118818E-2,3.213403143E-2,4.734513903E-1,4.827099439E-1
1.158149446E1,6.134398908E-2,2.435646717E-2,2.711330509E-1,2.790509878E-1
1.159141146E1,6.056959846E-2,-1.755286630E-2,1.692757237E-1,1.806406654E-1
1.160132746E1,5.207092633E-2,-4.630176187E-2,9.642935693E-2,1.189699769E-1
1.161124446E1,5.669765448E-2,-4.898833819E-3,-2.450451136E-2,6.196042022E-2
1.162116146E1,-3.330909337E-2,5.103267096E-3,1.467861629E-1,1.506045041E-1
1.163107846E1,-2.951812419E-2,1.134794723E-2,2.612594426E-1,2.631664718E-1
1.164099546E1,-6.364391827E-2,1.589357268E-2,3.639926827E-1,3.698564952E-1
1.165091146E1,1.002573189E-1,-2.730437748E-2,2.305592215E-1,2.528924942E-1
1.166082846E1,-1.075852049E-2,3.732219279E-2,7.733995199E-2,8.654571053E-2
1.167074546E1,-1.095939701E-1,4.888681591E-2,-2.686386287E-2,1.229732743E-1
1.168066246E1,-5.803004307E-2,-2.918246660E-2,-6.530579746E-2,9.210835704E-2
1.169057846E1,-4.904197725E-2,3.772623539E-3,-6.897901833E-2,8.471985122E-2
1.170049546E1,-7.849698806E-2,3.680310622E-2,-3.995870233E-2,9.546173921E-2
1.171041246E1,-6.743103194E-2,3.220463656E-2,2.987167060E-2,8.047607961E-2
1.172032946E1,-1.570424167E-2,4.565034550E-2,1.073279822E-1,1.176854834E-1
1.173024646E1,4.076143367E-2,2.113563806E-2,2.279279745E-1,2.325067122E-1
1.174016246E1,7.651794311E-3,2.059181046E-2,2.918637693E-1,2.926893104E-1
1.175007946E1,-3.178558306E-2,2.871052321E-2,3.264190596E-1,3.292172838E-1
1.175999646E1,6.566487132E-3,2.033347316E-2,3.736487746E-1,3.742592359E-1
1.176991346E1,-1.474329380E-1,5.505964838E-2,3.280211967E-1,3.638213045E-1
1.177983046E1,-2.277904553E-1,1.036894061E-1,2.438364941E-1,3.494226957E-1
1.178974646E1,1.949651733E-2,1.177782722E-2,1.760894841E-1,1.775565764E-1
1.179966346E1,1.323785230E-1,-4.786523424E-2,6.863461733E-2,1.566073584E-1
1.180958046E1,1.085057850E-1,-1.387171514E-2,9.347125053E-2,1.438846918E-1
1.181949746E1,1.208043251E-1,-1.107842714E-2,9.027048469E-2,1.512123570E-1
1.182941346E1,1.482496113E-1,-3.011067554E-2,9.018043756E-2,1.761167549E-1
1.183933046E1,7.367252352E-2,1.088897735E-3,7.625178516E-2,1.060337737E-1
1.184924746E1,3.063536265E-2,2.854881115E-2,-3.498389125E-3,4.202140870E-2
1.185916446E1,9.607240269E-2,1.411291279E-2,-3.129663706E-2,1.020223522E-1
1.186908146E1,1.662653395E-1,-4.504475668E-3,-1.758959413E-2,1.672538408E-1
1.187899746E1,1.030822824E-1,2.102629513E-2,8.827249110E-2,1.373320600E-1
1.188891446E1,5.403917220E-2,2.567665882E-2,1.712573451E-1,1.814072799E-1
1.189883146E1,-2.743147220E-2,4.854270726E-2,3.082348037E-1,3.132372492E-1
1.190874846E1,-4.614076244E-2,6.159946673E-2,3.812758827E-1,3.889662749E-1
1.191866546E1,-2.688693197E-2,5.063820317E-2,3.746679443E-1,3.790292907E-1
1.192858146E1,-1.375330903E-2,2.816640325E-2,2.628791213E-1,2.647412552E-1
1.193849846E1,4.493470112E-2,2.748834550E-2,1.904935151E-1,1.976423938E-1
1.194841546E1,2.991153217E-2,7.879634723E-3,1.618064904E-1,1.647365434E-1
1.195833246E1,3.853614785E-2,1.242730670E-2,1.823951215E-1,1.868353633E-1
1.196824946E1,6.145286607E-2,2.943188690E-2,2.425775886E-1,2.519654286E-1
1.197816546E1,1.175690880E-1,1.615965754E-2,3.238614875E-1,3.449201184E-1
1.198808246E1,1.289662889E-1,3.071038060E-2,4.036701339E-1,4.248823463E-1
1.199799946E1,5.808160820E-2,3.599253595E-2,4.018019485E-1,4.075705359E-1
1.200791646E1,5.542764838E-2,1.849781290E-2,3.917552626E-1,3.960891050E-1
1.201783333E1,-1.676694570E-2,-2.193714514E-2,4.077848196E-1,4.087185192E-1
1.202774933E1,1.000646805E-2,-3.461427413E-2,2.577458507E-1,2.602521872E-1
1.203766633E1,2.471014149E-2,1.153948009E-2,9.759236813E-2,1.013312440E-1
1.204758333E1,6.093359677E-2,2.613266855E-3,-3.516398549E-2,7.040055578E-2
1.205750033E1,8.029428511E-2,3.659487225E-2,-3.166501164E-2,9.374982591E-2
1.206741733E1,1.064975953E-1,2.104230188E-2,3.778236866E-2,1.149435673E-1
1.207733333E1,1.097421239E-1,7.384229377E-3,1.626403034E-1,1.963408488E-1
1.208725033E1,3.041072907E-2,-3.916172683E-3,2.291898036E-1,2.312317343E-1
1.209716733E1,-1.003754052E-2,-2.131675556E-3,1.362477261E-1,1.366335944E-1
1.210708433E1,-5.844273772E-3,-1.065223821E-2,-5.495096326E-2,5.627818474E-2
1.211700133E1,-4.990138091E-2,-3.333022557E-2,-2.062266183E-1,2.147800499E-1
1.212691733E1,-5.477339976E-2,-2.476785533E-2,-2.538457578E-1,2.608663274E-1
1.213683433E1,8.422594378E-3,-1.433240265E-2,-1.842884499E-1,1.850367278E-1
1.214675133E1,2.937044545E-2,1.423139200E-3,-6.194364846E-2,6.856868072E-2
1.215666833E1,2.479705486E-2,1.327559151E-2,2.642432767E-1,2.657360430E-1
1.216658533E1,-1.123860430E-2,2.001501918E-2,2.018564093E-1,2.031573705E-1
1.217650133E1,7.535151495E-2,7.329258241E-2,2.190355289E-1,2.429531156E-1
1.218641833E1,7.552218055E-2,-1.142838299E-3,2.900944018E-1,2.997660218E-1
1.219633533E1,2.280887363E-2,3.096553847E-2,3.677512729E-1,3.697568228E-1
1.220625233E1,5.311697493E-2,-9.860817567E-3,2.650829369E-1,2.705320908E-1
1.221616933E1,-1.162050971E-2,9.100167900E-3,2.033047646E-1,2.038398308E-1
1.222608633E1,-9.634921353E-2,2.453016602E-2,2.303516454E-1,2.508919698E-1
1.223600233E1,3.576888909E-2,-2.004140474E-2,2.116113192E-1,2.155467971E-1
1.224591933E1,8.794051543E-2,-2.243255049E-2,1.504810184E-1,1.757307329E-1
1.225583633E1,2.527257968E-2,1.063564673E-2,1.108421588E-1,1.141832056E-1
1.226575333E1,6.088873766E-2,2.858557552E-4,9.431266487E-2,1.122604064E-1
1.227567033E1,1.189089775E-2,1.814866103E-2,6.632145882E-2,6.978039299E-2
1.228558633E1,-1.336322665E-2,2.745472401E-2,1.398075110E-1,1.431030322E-1
1.229550333E1,1.021390717E-2,1.518478051E-2,2.316099662E-1,2.323318271E-1
1.230542033E1,1.974494177E-2,6.066705510E-3,2.215258580E-1,2.224867938E-1
1.231533733E1,2.229964511E-2,-2.323391140E-3,2.313830942E-1,2.324667903E-1
1.232525433E1,8.267613927E-2,-1.692871258E-2,1.894749302E-1,2.074190793E-1
1.233517033E1,1.111965092E-1,1.877248585E-3,1.802141100E-1,2.117671201E-1
1.234508733E1,5.023305508E-2,1.573851183E-3,2.007378370E-1,2.069336029E-1
1.235500433E1,-6.690731328E-3,-5.258839577E-4,1.209250975E-1,1.211111953E-1
1.236492133E1,-5.435096584E-3,3.642734952E-2,5.794356823E-2,6.865820539E-2
1.237483833E1,2.937586326E-2,2.317492761E-2,1.509487957E-1,1.555170651E-1
1.238475433E1,9.814762521E-2,1.834183842E-2,2.212288195E-1,2.427170574E-1
1.239467133E1,1.414759865E-1,8.504921347E-3,2.014044195E-1,2.462753107E-1
1.240458833E1,9.595716686E-2,1.847325459E-2,1.748557216E-1,2.003086678E-1
1.241450533E1,7.539015225E-2,1.746110156E-2,2.047800171E-1,2.189141853E-1
1.242442233E1,6.661691680E-2,1.299828731E-2,2.533528376E-1,2.622869219E-1
1.243433933E1,6.136430816E-2,1.090988114E-2,2.795945567E-1,2.864571869E-1
1.244425533E1,1.764654966E-2,2.125894122E-2,2.794320041E-1,2.807945658E-1
1.245417233E1,-1.592820830E-2,3.577099957E-2,2.424846178E-1,2.456258580E-1
1.246408933E1,-8.341476138E-2,5.361933298E-2,9.496638358E-2,1.373013813E-1
1.247400633E1,-2.413923214E-1,8.591694027E-2,-5.640867412E-2,2.623621771E-1
1.248392333E1,-1.917172460E-1,2.886668041E-2,-1.288597691E-1,2.327952486E-1
1.249383933E1,-4.500696905E-2,-1.858617894E-2,5.130522430E-2,7.073400421E-2
1.250375633E1,1.033057191E-1,-6.708802879E-3,2.961714131E-1,3.137428653E-1
1.251367333E1,1.660922620E-1,-8.861236051E-3,5.069705540E-1,5.335581539E-1
1.252359033E1,1.888231483E-1,-1.195097789E-2,6.251995003E-1,6.532009051E-1
1.253350733E1,1.672568263E-1,-2.444428504E-2,7.169136626E-1,7.365714959E-1
1.254342433E1,1.125389660E-1,-1.947868332E-2,7.440464973E-1,7.527613355E-1
1.255334033E1,1.860988209E-1,-5.606047243E-2,7.625476724E-1,7.869272523E-1
1.256325733E1,1.110403337E-1,-5.834878027E-2,6.709147865E-1,6.825402454E-1
1.257317433E1,8.845382787E-2,-3.911904216E-2,5.970814097E-1,6.048641078E-1
1.258309133E1,9.831087216E-2,-4.916835934E-2,5.285672450E-1,5.398758076E-1
1.259300833E1,3.060545049E-2,-4.297630414E-2,4.362660223E-1,4.394447617E-1
1.260292533E1,-2.701661224E-2,-2.455552831E-2,3.385912085E-1,3.405537810E-1
1.261284133E1,3.676636926E-2,-3.203894109E-2,1.863817531E-1,1.926562159E-1
1.262275833E1,3.583861713E-2,-1.605557710E-2,5.137480617E-2,6.466497307E-2
1.263267533E1,1.115765691E-2,-7.377870530E-3,-5.222499132E-2,5.391081524E-2
1.264259233E1,3.046795869E-2,-1.949154720E-2,-1.459581971E-1,1.503729105E-1
1.265250933E1,-8.286020779E-2,2.427033037E-3,-2.564050841E-1,2.694722095E-1
1.266242533E1,-6.771813937E-2,1.261302888E-2,-3.666894186E-1,3.731031554E-1
1.267234233E1,-9.428306334E-3,1.728977814E-2,-3.717349809E-1,3.722562631E-1
1.268225933E1,-3.364899019E-2,2.927642405E-2,-3.072127104E-1,3.104335887E-1
1.269217633E1,-2.895424247E-2,1.425975099E-2,-2.245535463E-1,2.268611554E-1
1.270209333E1,-5.094977754E-2,2.987751782E-2,-1.232943892E-1,1.367115662E-1
1.271201033E1,-4.205351301E-2,1.607779652E-2,-2.957521677E-3,4.511918031E-2
1.272192633E1,-2.469859323E-2,1.380001366E-2,3.943888485E-2,4.853747545E-2
1.273184333E1,-1.978126760E-2,3.330647126E-2,-2.937465727E-2,4.861573886E-2
1.274176033E1,-1.183845554E-2,3.377585649E-2,-4.606962740E-2,5.833839285E-2
1.275167733E1,2.381914459E-2,5.581883624E-2,4.275425613E-2,7.423624819E-2
1.276159433E1,-1.653312103E-2,4.671223640E-2,1.496676707E-1,1.576571875E-1
1.277151133E1,-8.768493729E-3,1.863843843E-2,2.460718846E-1,2.469324812E-1
1.278142733E1,9.104717765E-3,3.670838133E-2,3.107227939E-1,3.130160632E-1
1.279134433E1,-5.499354743E-2,5.039291248E-2,3.730014879E-1,3.803864427E-1
1.280126133E1,-4.991452801E-2,3.281515896E-2,3.808379263E-1,3.854942553E-1
1.281117833E1,-1.338708146E-2,4.709391341E-2,3.300934500E-1,3.337045644E-1
1.282109533E1,-6.769361760E-2,7.626757264E-2,3.338526249E-1,3.490798528E-1
1.283101233E1,-1.473217861E-2,5.508618012E-2,3.692388046E-1,3.736158711E-1
1.284092833E1,5.701909603E-2,2.788478673E-2,3.608112127E-1,3.663515659E-1
1.285084533E1,3.610292955E-2,1.568281710E-2,4.625439942E-1,4.642158106E-1
1.286076233E1,-3.690343165E-2,2.521012411E-2,6.558201993E-1,6.573412716E-1
1.287067933E1,-1.742684967E-2,1.803997591E-2,6.795750976E-1,6.800378291E-1
1.288059633E1,-5.091645755E-4,3.062479198E-3,5.177417099E-1,5.177510176E-1
1.289051333E1,4.907558961E-2,-7.656490356E-3,4.189009613E-1,4.218353360E-1
1.290042933E1,7.298796988E-2,-2.419943288E-2,2.578242034E-1,2.690467917E-1
1.291034633E1,2.442112458E-2,-2.510502040E-2,1.322271806E-1,1.367869901E-1
1.292026333E1,2.698308212E-2,-2.709731296E-2,4.152283251E-2,5.644906297E-2
1.293018033E1,3.485408306E-2,-1.488262564E-2,4.165264070E-2,5.631378276E-2
1.294009733E1,7.990532650E-2,-1.689114422E-2,5.281614482E-2,9.726107705E-2
1.295001433E1,1.873295137E-1,-5.233477280E-2,4.555331826E-2,1.997658127E-1
1.295993033E1,1.581335619E-1,-4.680038318E-2,6.239622295E-2,1.763229648E-1
1.296984733E1,8.652093938E-2,-2.459631264E-2,1.582467055E-1,1.820243702E-1
1.297976433E1,8.000407135E-3,-1.064397901E-2,2.393353075E-1,2.397054238E-1
1.298968133E1,1.827803068E-4,-1.220255435E-2,2.847944856E-1,2.850558450E-1
1.299959833E1,-2.300349455E-3,-1.524939224E-2,3.234486741E-1,3.238161212E-1
1.300951533E1,3.020158147E-2,-3.340324268E-2,3.397460335E-1,3.427174922E-1
1.301943087E1,6.801488556E-2,-2.712450251E-2,3.230960870E-1,3.312896689E-1
1.302934787E1,7.112969734E-2,-3.419714838E-2,2.785215926E-1,2.894877482E-1
1.303926488E1,4.516094268E-2,-2.134043679E-2,1.809122676E-1,1.876810420E-1
1.304918188E1,1.043483142E-2,-4.046127051E-3,1.310676777E-1,1.315446426E-1
1.305909888E1,3.617840432E-2,-1.495059952E-2,1.328347063E-1,1.384826941E-1
1.306901588E1,4.002112135E-2,-2.365681127E-2,1.228529245E-1,1.313551519E-1
1.307893187E1,-1.265793367E-2,-1.610615551E-3,8.110088110E-2,8.209854008E-2
1.308884888E1,5.078434702E-3,-1.741973251E-2,-7.838777304E-3,1.976572815E-2
1.309876588E1,4.511839505E-2,-5.654608369E-2,-1.873798728E-2,7.472778145E-2
1.310868288E1,-1.314877088E-2,-2.734508872E-2,-1.579332948E-2,3.420633434E-2
1.311859988E1,-1.149952259E-1,2.938372046E-2,-1.245644045E-1,1.720569553E-1
1.312851688E1,1.534101811E-1,-5.520063937E-2,-1.794042706E-2,1.640233312E-1
1.313843387E1,1.004634972E-1,2.549970746E-3,8.605288804E-2,1.323046339E-1
1.314834988E1,-8.833120080E-2,5.271264911E-3,5.727055371E-2,1.054044761E-1
1.315826688E1,2.402794501E-2,-2.107658118E-2,1.809186995E-2,3.672710408E-2
1.316818388E1,9.380572954E-2,3.674682677E-3,4.109832466E-2,1.024797076E-1
1.317810088E1,2.357366203E-2,-7.448183298E-3,1.365892035E-1,1.388085137E-1
1.318801787E1,-5.007980322E-2,-7.388804823E-2,1.573485732E-1,1.809032997E-1
1.319793487E1,-4.167319732E-3,1.945193231E-2,1.262799776E-1,1.278373066E-1
1.320785088E1,5.469096316E-2,1.797726452E-3,1.612194300E-1,1.702528645E-1
1.321776788E1,5.339881986E-2,3.129283637E-2,1.789265531E-1,1.893287801E-1
1.322768488E1,7.598551758E-2,2.741759419E-2,1.893135470E-1,2.058279438E-1
1.323760188E1,4.235501007E-2,3.068121761E-2,1.794183040E-1,1.868855580E-1
1.324751887E1,5.286145161E-2,1.711275369E-2,1.837224394E-1,1.919403922E-1
1.325743587E1,2.168509360E-2,2.606805682E-2,1.928628069E-1,1.958209620E-1
1.326735288E1,4.841619727E-2,3.270113826E-2,2.020306563E-1,2.103090077E-1
1.327726888E1,4.273340715E-2,4.151757002E-2,1.978574985E-1,2.066335946E-1
1.328718588E1,2.368780151E-2,3.145948201E-2,1.524614704E-1,1.574652689E-1
1.329710287E1,4.991112018E-2,1.411985636E-2,1.162654513E-1,1.273112149E-1
1.330701987E1,6.727599850E-2,1.385526985E-2,1.807719344E-1,1.933818004E-1
1.331693688E1,7.561611973E-2,3.848637342E-3,2.543164587E-1,2.653478297E-1
1.332685388E1,1.100092503E-1,-1.333486766E-2,2.872883230E-1,3.079195259E-1
1.333677088E1,6.394164205E-2,8.600377142E-3,2.265117788E-1,2.355208824E-1
1.334668688E1,2.802661825E-3,1.164151400E-2,1.379445881E-1,1.384633133E-1
1.335660387E1,7.381739742E-2,6.943276227E-3,7.884970307E-2,1.082335111E-1
1.336652087E1,8.488434940E-2,2.118241578E-2,6.982335627E-2,1.119345728E-1
1.337643788E1,5.696830748E-2,-4.581293464E-3,9.976285458E-2,1.149739251E-1
1.338635488E1,8.836847680E-2,-2.487873316E-2,1.938141489E-1,2.144571364E-1
1.339627188E1,4.459294964E-2,-4.869561195E-3,2.144232452E-1,2.190652228E-1
1.340618888E1,-3.670306401E-2,2.897880077E-3,2.010138255E-1,2.043577028E-1
1.341610487E1,-4.714713220E-2,-1.226950496E-2,2.324852943E-1,2.375348499E-1
1.342602188E1,-2.547953457E-2,-1.243790478E-2,3.094060010E-1,3.107024004E-1
1.343593888E1,-2.606117721E-2,-2.707787097E-2,3.960886341E-1,3.978675686E-1
1.344585588E1,2.333075590E-3,-1.442244977E-2,3.036587727E-1,3.040100336E-1
1.345577288E1,8.649146575E-3,-1.062702209E-2,1.806889039E-1,1.812076746E-1
1.346568987E1,4.059564684E-2,3.201496750E-2,1.557815194E-1,1.641366701E-1
1.347560687E1,-5.235834438E-3,-2.991318583E-2,1.738681269E-1,1.765002498E-1
1.348552288E1,1.655284625E-2,5.550469458E-3,2.035363144E-1,2.042837137E-1
1.349543988E1,7.570824992E-2,1.374680400E-3,1.291983229E-1,1.497525809E-1
1.350535688E1,1.048002857E-1,-7.340009809E-3,7.211955786E-3,1.053042636E-1
1.351527388E1,1.303312301E-1,3.287187696E-2,-1.246199530E-1,1.832946331E-1
1.352519087E1,2.164581676E-2,4.827782840E-2,-7.492680609E-2,9.172413188E-2
1.353510787E1,-5.006413450E-3,7.309867412E-2,1.172296572E-1,1.382435274E-1
1.354502488E1,2.084120334E-2,5.662268221E-2,2.124036169E-1,2.208071112E-1
1.355494088E1,1.872205362E-3,5.423146337E-2,1.549705106E-1,1.641962726E-1
1.356485788E1,-3.421830799E-2,7.014290661E-2,1.057860714E-1,1.314595484E-1
1.357477488E1,-1.402617300E-2,5.038224131E-2,1.031390369E-1,1.156406706E-1
1.358469187E1,8.764957990E-3,4.745044738E-2,1.513276953E-1,1.588346335E-1
1.359460888E1,1.373551156E-2,3.680763781E-2,2.285998195E-1,2.319511672E-1
1.360452588E1,1.704841604E-2,3.522333473E-2,2.629171282E-1,2.658133708E-1
1.361444288E1,-1.399489040E-2,3.169454008E-2,2.455403727E-1,2.479727313E-1
1.362435888E1,-4.786127823E-2,2.658407360E-2,2.666961837E-1,2.722577259E-1
1.363427587E1,8.686239850E-3,8.322634399E-3,2.050548363E-1,2.054074071E-1
1.364419287E1,1.530325058E-2,1.048990488E-2,1.417335838E-1,1.429427730E-1
1.365410988E1,2.687240529E-2,5.354500026E-2,1.582730180E-1,1.692322116E-1
1.366402688E1,2.829416491E-2,4.240196139E-2,1.703562891E-1,1.778194347E-1
1.367394388E1,1.979459742E-2,3.556978226E-2,9.054530382E-2,9.927480819E-2
1.368386088E1,6.099611630E-2,2.247406572E-2,5.026266575E-3,6.519872076E-2
1.369377687E1,1.023281743E-1,-2.323391140E-3,1.918179095E-2,1.041364225E-1
1.370369387E1,5.445915760E-2,8.835142851E-4,7.971567571E-2,9.654620344E-2
1.371361088E1,1.938505478E-2,1.325768441E-2,1.375539941E-1,1.395444296E-1
1.372352788E1,2.902436337E-2,1.235195071E-2,2.208756477E-1,2.231166423E-1
1.373344488E1,-3.498014538E-3,2.794559777E-2,2.514612633E-1,2.530335145E-1
1.374336188E1,-3.353930008E-2,4.286184490E-2,2.753073782E-1,2.806353058E-1
1.375327887E1,1.276742279E-2,2.589994937E-2,2.918175763E-1,2.932427532E-1
1.376319587E1,7.540815985E-2,-8.339006603E-3,2.371390933E-1,2.489796762E-1
1.377311188E1,8.588948577E-2,-8.169437349E-3,2.100980598E-1,2.271231785E-1
1.378302888E1,4.402748734E-2,3.684330583E-3,1.868278956E-1,1.919808754E-1
1.379294588E1,4.299375443E-2,6.182553470E-3,1.681922346E-1,1.737104334E-1
1.380286287E1,9.329305664E-3,1.563077688E-2,1.862016588E-1,1.870893233E-1
1.381277987E1,-3.066960541E-2,3.549435318E-2,2.539527619E-1,2.582488704E-1
1.382269688E1,-1.000796640E-2,2.712523341E-2,3.239474416E-1,3.252351189E-1
1.383261388E1,-3.392757347E-2,3.996016413E-2,3.836539453E-1,3.872186007E-1
1.384252988E1,-1.301830945E-1,4.657745808E-2,6.150803089E-1,6.304291270E-1
1.385244688E1,-2.402441841E-1,8.700510710E-2,7.097823983E-1,7.543727259E-1
1.386236387E1,2.000643291E-1,-9.978010386E-2,7.684673935E-1,8.003273954E-1
1.387228087E1,2.944853319E-1,-1.257996288E-1,5.010163343E-1,5.946129199E-1
1.388219788E1,-1.230705871E-1,2.228461593E-2,2.915228766E-1,3.172200515E-1
1.389211488E1,-1.187967566E-1,-2.085029393E-2,1.901491141E-1,2.251756864E-1
1.390203188E1,7.001307101E-2,-4.654237479E-2,4.698588610E-2,9.631041613E-2
1.391194888E1,2.137334199E-1,-4.233881146E-2,-5.892706990E-2,2.257143091E-1
1.392186487E1,1.261087181E-1,-3.437724262E-2,-2.110762990E-1,2.482708351E-1
1.393178188E1,8.302418564E-2,-2.418057561E-2,-1.753369474E-1,1.955013063E-1
1.394169888E1,1.001912362E-1,-2.667412072E-2,-4.490018427E-2,1.129859242E-1
1.395161588E1,1.454208106E-1,-4.485165238E-2,6.791248620E-2,1.666462981E-1
1.396153288E1,1.070504313E-1,-2.288570970E-2,7.932215810E-2,1.351871122E-1
1.397144987E1,7.885927789E-2,-1.658825845E-2,2.833853066E-2,8.542264540E-2
1.398136687E1,7.034909862E-2,-1.550681591E-2,-5.272902131E-2,8.927377389E-2
1.399128388E1,3.426070488E-2,5.866803825E-3,-7.462801337E-2,8.232591127E-2
1.400119988E1,5.758613433E-2,8.294275403E-4,-1.069046438E-2,5.857590670E-2
1.401111688E1,6.804832889E-2,4.408800602E-4,8.206625640E-2,1.066097551E-1
1.402103358E1,6.753299276E-2,6.517598927E-3,5.505153537E-2,8.737193917E-2
1.403095058E1,3.885118943E-2,1.871898383E-2,5.131574929E-2,6.703074967E-2
1.404086758E1,2.770355958E-2,1.634823024E-2,1.073806071E-1,1.120952570E-1
1.405078458E1,6.489874902E-2,1.476246536E-2,1.484882873E-1,1.627223079E-1
1.406070158E1,4.050632605E-2,2.050647765E-2,2.095121688E-1,2.143749681E-1
1.407061858E1,4.311444461E-2,1.167425841E-2,2.566512519E-1,2.605091337E-1
1.408053458E1,4.047824114E-2,7.250839770E-3,2.492866838E-1,2.526557211E-1
1.409045158E1,3.530191583E-2,6.542449594E-3,2.028861040E-1,2.060383462E-1
1.410036858E1,3.779012079E-2,-9.799933434E-3,1.830517638E-1,1.871685875E-1
1.411028558E1,7.524578084E-2,-1.486771524E-2,1.655522168E-1,1.824568797E-1
1.412020258E1,8.587875978E-2,-8.228201866E-3,1.792721236E-1,1.989506446E-1
1.413011958E1,3.726838927E-2,2.210919946E-2,2.160417545E-1,2.203447055E-1
1.414003658E1,-8.865100695E-3,2.810551912E-2,2.369420421E-1,2.387677565E-1
1.414995258E1,-1.832225025E-2,3.667402893E-2,2.188700527E-1,2.226764227E-1
1.415986958E1,1.752499153E-2,1.125764430E-2,1.884195077E-1,1.895673252E-1
1.416978658E1,2.761620766E-2,5.156659484E-3,2.247728169E-1,2.265216662E-1
1.417970358E1,2.052401930E-2,1.797404855E-2,2.618166822E-1,2.632342624E-1
1.418962058E1,6.607461495E-2,-1.105123758E-4,2.640678602E-1,2.722089304E-1
1.419953758E1,5.446083868E-2,-3.094638884E-3,2.658378124E-1,2.713766796E-1
1.420945458E1,5.958286255E-2,-1.160350710E-2,4.393837577E-1,4.435570374E-1
1.421937158E1,-2.421775111E-2,3.306775868E-2,-1.596851206E-1,1.648614990E-1
1.422928858E1,6.350564989E-2,-8.274394870E-3,2.896301329E-1,2.966261065E-1
1.423920458E1,-2.775731742E-2,3.040055126E-2,2.775948089E-1,2.806306115E-1
1.424912158E1,-1.123609548E-1,5.575992554E-2,2.046659964E-1,2.400465029E-1
1.425903858E1,3.085502610E-4,-1.716859460E-2,2.850143409E-1,2.855311373E-1
1.426895558E1,-7.031771095E-2,-8.797691435E-2,1.798954368E-1,2.122425172E-1
1.427887258E1,-5.432537514E-2,-1.412701920E-1,1.544495237E-1,2.162479338E-1
1.428878958E1,1.768364294E-2,-1.275479463E-1,1.721361816E-1,2.149698929E-1
1.429870658E1,1.211089193E-1,2.132099479E-2,2.145173854E-1,2.472643601E-1
1.430862358E1,8.431058222E-2,-3.778412282E-2,1.578847629E-1,1.829303489E-1
1.431853958E1,1.987827656E-2,4.228267819E-2,3.004357874E-2,5.554806367E-2
1.432845658E1,-1.117657813E-1,-6.886382818E-2,-5.773540735E-2,1.434126702E-1
1.433837358E1,-8.854235837E-2,2.589205563E-2,-3.824663758E-2,9.986467372E-2
1.434829058E1,6.081273300E-2,9.026843816E-2,3.926639199E-2,1.157083790E-1
1.435820758E1,1.948357854E-1,2.673700753E-1,1.730857694E-1,3.733716968E-1
1.436812458E1,9.254857818E-2,1.809365335E-1,2.439440829E-1,3.175090299E-1
1.437804158E1,-2.952903290E-2,-1.942445040E-2,1.522135484E-1,1.562633590E-1
1.438795858E1,-3.546529982E-2,1.712941825E-2,1.506067336E-1,1.556714253E-1
1.439787458E1,-7.669365194E-2,1.252181232E-3,2.457461947E-1,2.574386848E-1
1.440779158E1,9.590091482E-3,1.547582567E-2,3.464141983E-1,3.468923000E-1
1.441770858E1,3.955548199E-2,1.885054618E-2,3.570912141E-1,3.597695296E-1
1.442762558E1,-8.500958945E-2,6.470821202E-3,3.294332993E-1,3.402863508E-1
1.443754258E1,-8.851884160E-2,7.058758736E-3,4.247090006E-1,4.338930128E-1
1.444745958E1,-3.409537029E-2,-3.106040955E-3,3.918505722E-1,3.933433776E-1
1.445737658E1,1.201945975E-1,1.034021616E-2,3.826102173E-1,4.011785634E-1
1.446729358E1,4.910483482E-2,-2.011149824E-2,3.209185839E-1,3.252760284E-1
1.447721058E1,3.071102014E-2,-2.497404277E-2,3.117267609E-1,3.142299206E-1
1.448712658E1,1.027346837E-1,-9.528037906E-3,2.983185107E-1,3.156566688E-1
1.449704358E1,1.708542709E-1,-4.390089512E-3,2.738134146E-1,3.227758367E-1
1.450696058E1,1.580347622E-1,-4.621054530E-2,2.115282887E-1,2.680571161E-1
1.451687758E1,1.221781923E-1,-3.765899241E-2,2.040450221E-1,2.407905344E-1
1.452679458E1,1.299400787E-1,-2.473372221E-2,1.980697525E-1,2.381760020E-1
1.453671158E1,1.054155589E-1,-2.380109131E-2,1.921383369E-1,2.204451690E-1
1.454662858E1,8.731372132E-2,-1.242533326E-2,2.346926183E-1,2.507163734E-1
1.455654558E1,8.158720499E-2,-1.407541752E-2,2.982805037E-1,3.095575040E-1
1.456646258E1,6.689853332E-2,-3.057567537E-2,2.459748209E-1,2.567370214E-1
1.457637858E1,1.297727479E-1,-5.199928880E-2,2.258475351E-1,2.656162669E-1
1.458629558E1,2.750702370E-1,-1.226582122E-1,3.069606954E-1,4.300389992E-1
1.459621258E1,3.135300422E-1,-1.352151078E-1,2.801974046E-1,4.416953682E-1
1.460612958E1,1.618736969E-1,-4.900434494E-2,2.395990169E-1,2.932783805E-1
1.461604658E1,2.242633782E-2,9.008220434E-2,2.557385015E-1,2.720660312E-1
1.462596358E1,-6.910304326E-2,7.093198836E-2,2.643947196E-1,2.823316229E-1
1.463588058E1,-1.266042422E-1,-1.177044511E-2,1.676227158E-1,2.103914266E-1
1.464579758E1,-1.365618677E-1,-2.997224271E-2,1.553862476E-1,2.090271872E-1
1.465571458E1,-2.244465605E-2,-1.814741850E-2,1.936422408E-1,1.957815333E-1
1.466563058E1,1.027728916E-1,-2.598093331E-2,1.535209858E-1,1.865635796E-1
1.467554758E1,5.229397933E-2,-5.432706535E-2,5.272902131E-2,9.201325987E-2
1.468546458E1,-1.741125405E-2,-6.821478724E-2,8.183821499E-2,1.079532417E-1
1.469538158E1,-1.858188489E-2,-1.717268765E-2,1.024905807E-1,1.055675460E-1
1.470529858E1,9.059509652E-2,-5.354353845E-2,2.366672230E-1,2.590091822E-1
1.471521558E1,2.729043004E-1,-1.306835157E-1,3.880639154E-1,4.920859080E-1
1.472513258E1,2.508936814E-1,-1.179354161E-1,2.466343868E-1,3.710591900E-1
1.473504958E1,1.988718808E-1,-1.109631962E-1,1.409161431E-1,2.678063017E-1
1.474496658E1,7.039663922E-2,-7.043906808E-2,2.735210538E-2,1.032738437E-1
1.475488258E1,-1.016431821E-1,-7.693766356E-2,3.330398619E-2,1.317569582E-1
1.476479958E1,-1.663584199E-1,1.079396009E-2,7.164534867E-2,1.814516173E-1
1.477471658E1,-2.028665341E-1,1.191498828E-1,7.599977016E-2,2.472397425E-1
1.478463358E1,-1.029668821E-1,-2.865135670E-5,2.989096642E-2,1.072177667E-1
1.479455058E1,-5.683965046E-2,-3.395302713E-2,-1.252122760E-2,6.738200840E-2
1.480446758E1,-2.579585066E-2,-9.850219488E-2,6.542332649E-2,1.210302440E-1
1.481438458E1,-1.269256563E-1,-6.029064059E-2,1.085611600E-1,1.775686037E-1
1.482430158E1,9.184057172E-3,-9.184221625E-2,1.251760232E-1,1.555261277E-1
1.483421858E1,8.678242869E-2,-1.090131497E-1,1.701609921E-1,2.199313984E-1
1.484413458E1,-9.316502089E-2,-2.341692924E-2,2.404398465E-1,2.589196661E-1
1.485405158E1,-1.803936195E-1,2.029100776E-2,2.454351228E-1,3.052736191E-1
1.486396858E1,-8.197747009E-2,6.015966296E-2,2.732666999E-1,2.915719121E-1
1.487388558E1,-6.332696264E-2,6.494034648E-2,2.681959945E-1,2.831194876E-1
1.488380258E1,1.000712861E-1,1.016088206E-1,2.784251136E-1,3.128244852E-1
1.489371958E1,2.067689841E-1,3.780341864E-2,1.963875085E-1,2.876639789E-1
1.490363658E1,1.470199053E-1,-2.910802424E-2,9.111540735E-2,1.753971125E-1
1.491355358E1,5.261817089E-2,3.149427295E-2,9.326484382E-2,1.116194079E-1
1.492347058E1,1.085437371E-1,7.819715381E-2,1.252268940E-1,1.832438613E-1
1.493338658E1,6.743339824E-2,-2.837653756E-2,1.026776916E-1,1.260761652E-1
1.494330358E1,4.025110879E-2,3.289058805E-3,1.278634036E-1,1.340895956E-1
1.495322058E1,-7.038805112E-3,4.683268905E-2,1.850287074E-1,1.909933719E-1
1.496313758E1,1.066168511E-2,2.918462276E-2,2.300458360E-1,2.321346600E-1
1.497305458E1,6.121055380E-2,2.431681573E-2,2.212908000E-1,2.308845113E-1
1.498297158E1,1.110217505E-1,2.356135547E-2,2.500567621E-1,2.746076307E-1
1.499288858E1,7.945988744E-2,2.120434284E-2,2.863124228E-1,2.978897469E-1
1.500280558E1,2.530750765E-2,4.560828209E-4,2.591591227E-1,2.603922596E-1
1.501272258E1,-1.457934701E-2,-7.518349886E-3,2.235314530E-1,2.241325354E-1
1.502263938E1,-3.784966646E-3,-6.762304902E-3,2.179210496E-1,2.180587962E-1
1.503255638E1,1.071422783E-1,-4.780274212E-2,1.993432760E-1,2.313056671E-1
1.504247238E1,2.510133849E-1,-1.035460031E-1,6.258333385E-2,2.786506196E-1
1.505238937E1,2.299022868E-1,-9.620716274E-2,-1.870290399E-2,2.499213442E-1
1.506230637E1,5.646765791E-2,-2.624054968E-2,7.190496504E-2,9.511827813E-2
1.507222338E1,1.722647290E-2,-7.973847985E-3,9.844781578E-2,1.002611892E-1
1.508214038E1,-1.692246336E-2,-4.110592604E-4,9.670593023E-2,9.817624804E-2
1.509205738E1,-3.389233486E-2,6.037250161E-3,1.232522893E-1,1.279697838E-1
1.510197438E1,-4.188489393E-2,2.065996706E-2,1.776378268E-1,1.836746474E-1
1.511189137E1,5.551194878E-2,-9.329817295E-3,2.208996212E-1,2.279589099E-1
1.512180837E1,1.859687569E-1,-6.450239003E-2,2.035088325E-1,2.831267945E-1
1.513172538E1,1.275708601E-1,-5.375520766E-2,1.916840082E-1,2.364459890E-1
1.514164138E1,2.229060019E-2,-2.409696043E-2,1.792960972E-1,1.822762322E-1
1.515155838E1,3.117483225E-2,-2.953428626E-2,2.004565859E-1,2.050048464E-1
1.516147538E1,3.149929790E-2,-2.483429432E-2,1.829804277E-1,1.873253450E-1
1.517139237E1,5.925245832E-2,-2.616570532E-2,1.115642899E-1,1.290042198E-1
1.518130938E1,9.373219167E-2,-1.380819976E-2,6.690851927E-2,1.159876721E-1
1.519122638E1,2.663266945E-2,-1.393742323E-2,2.034597158E-2,3.629751242E-2
1.520114338E1,1.550787572E-2,-1.302876592E-2,-1.129974425E-2,2.319325701E-2
1.521106038E1,-1.587358251E-2,-1.581262529E-2,-1.193241298E-2,2.538488172E-2
1.522097738E1,-1.242485087E-1,-1.968231261E-2,-3.811332107E-2,1.314447054E-1
1.523089437E1,-2.213279115E-1,-3.947455287E-2,1.934843659E-3,2.248288869E-1
1.524081038E1,-7.434255048E-2,-4.264608264E-2,4.949434161E-2,9.897066751E-2
1.525072738E1,1.165478079E-1,-1.064193249E-4,1.116017121E-1,1.613640139E-1
1.526064438E1,1.796221160E-1,-1.288726330E-2,1.354536742E-1,2.253394860E-1
1.527056138E1,1.610174269E-1,2.685041428E-3,1.243199909E-1,2.034435582E-1
1.528047837E1,5.076269405E-3,1.888299823E-2,9.405304849E-2,9.606410393E-2
1.529039537E1,-6.020482357E-2,-1.687038660E-2,1.048627961E-1,1.220878238E-1
1.530031238E1,2.075017864E-2,-2.819702804E-2,1.128378135E-1,1.181440411E-1
1.531022938E1,1.286782862E-1,-4.375062168E-2,1.146065962E-1,1.777832673E-1
1.532014638E1,1.555422221E-1,1.758374691E-2,1.467908406E-1,2.145929214E-1
1.533006338E1,1.805806756E-1,8.147334874E-2,1.679384655E-1,2.597125626E-1
1.533997937E1,4.011766437E-2,1.507119834E-2,1.438672328E-1,1.501144520E-1
1.534989637E1,-7.736781763E-2,4.013528824E-3,8.338363409E-2,1.138187948E-1
1.535981338E1,-3.181151181E-2,7.823574543E-4,1.311267346E-1,1.349325939E-1
1.536973038E1,-7.430596883E-2,-3.265085220E-2,1.288410580E-1,1.522743359E-1
1.537964738E1,-6.422829266E-2,-3.809753358E-2,1.420557654E-1,1.604884299E-1
1.538956438E1,1.804373092E-2,-2.497813582E-2,1.408243418E-1,1.441560915E-1
1.539948137E1,2.631097209E-2,-8.215454936E-2,9.550608158E-2,1.286975091E-1
1.540939837E1,1.347448820E-1,5.014338255E-2,1.651627922E-1,2.189732632E-1
1.541931538E1,1.036369913E-1,-5.593095660E-2,2.022201061E-1,2.340125407E-1
1.542923238E1,-3.396334198E-2,-1.191387731E-1,1.278464466E-1,1.780232282E-1
1.543914938E1,-6.431075667E-2,-4.721451223E-2,1.081191105E-1,1.343682464E-1
1.544906537E1,-1.787399721E-2,-8.636337519E-3,1.367301214E-1,1.381636428E-1
1.545898237E1,-5.070550097E-3,1.964255154E-2,1.106568021E-1,1.125009696E-1
1.546889938E1,6.652276749E-3,-1.187136805E-1,1.230371118E-1,1.711003261E-1
1.547881638E1,3.459864196E-2,-4.280044913E-2,7.537060976E-2,9.332563039E-2
1.548873338E1,2.605884928E-1,1.162911791E-1,1.758596885E-1,3.351964066E-1
1.549865038E1,1.155634565E-1,-7.214879394E-2,1.277242398E-1,1.867453946E-1
1.550856737E1,2.985680589E-2,1.157216603E-1,1.374440664E-1,1.821367698E-1
1.551848437E1,3.356790575E-2,1.149223459E-1,3.020741773E-1,3.249350065E-1
1.552840138E1,5.757715794E-2,-4.607255101E-2,2.577628076E-1,2.681034764E-1
1.553831838E1,5.661368298E-2,-9.955995619E-2,1.901432669E-1,2.219724216E-1
1.554823538E1,1.993368806E-1,8.205222309E-2,2.371572196E-1,3.204860467E-1
1.555815138E1,8.863637977E-2,-2.000507891E-2,2.573295289E-1,2.729012595E-1
1.556806837E1,-1.046077478E-1,2.372800112E-3,2.398212111E-1,2.616536344E-1
1.557798537E1,9.652727039E-2,1.541758740E-1,3.021770883E-1,3.527020084E-1
1.558790238E1,3.702045453E-1,1.273716527E-1,3.494547504E-1,5.247795403E-1
1.559781938E1,3.495014551E-1,5.174025714E-2,3.107257175E-1,4.705090784E-1
1.560773638E1,2.460385738E-1,2.665687144E-2,3.033383453E-1,3.914839975E-1
1.561765338E1,9.603768485E-2,-1.953554749E-3,2.662664133E-1,2.830633430E-1
1.562757037E1,6.200712729E-2,4.536913097E-2,2.674715245E-1,2.782880851E-1
1.563748737E1,6.795401970E-2,-3.204858899E-3,2.464607245E-1,2.556773526E-1
1.564740438E1,7.197472963E-2,-1.796498537E-2,2.378009981E-1,2.491032258E-1
1.565732138E1,8.768455356E-2,-7.997236848E-3,2.054477692E-1,2.235202957E-1
1.566723838E1,7.896598044E-2,-2.419987142E-2,1.583958095E-1,1.786350814E-1
1.567715438E1,7.150236597E-2,-2.886244118E-2,1.810151786E-1,1.967539675E-1
1.568707137E1,8.284376250E-2,-2.315672815E-2,1.359284681E-1,1.608597883E-1
1.569698837E1,5.276468933E-2,-1.572725594E-2,1.194714797E-1,1.315480652E-1
1.570690538E1,3.651355941E-2,-4.286009073E-3,1.388409662E-1,1.436259858E-1
1.571682238E1,9.012257754E-2,-2.031030357E-2,9.499971271E-2,1.325123874E-1
1.572673938E1,1.142115072E-1,-3.508855641E-2,6.318501234E-2,1.351585031E-1
1.573665638E1,1.070591108E-1,-3.001843572E-2,8.276149035E-2,1.386081670E-1
1.574657337E1,1.099000262E-1,-3.573584318E-2,9.570956469E-2,1.500512813E-1
1.575649037E1,1.114702685E-1,-3.510434389E-2,5.780148089E-2,1.303800097E-1
1.576640738E1,1.118168440E-1,-3.282685339E-2,2.575172246E-2,1.193472250E-1
1.577632438E1,1.273196856E-1,-3.190357804E-2,5.606778145E-2,1.427295931E-1
1.578624138E1,1.223530423E-1,-3.551072538E-2,4.309748769E-2,1.344941338E-1
1.579615838E1,1.034546952E-1,-2.541609228E-2,1.785096467E-2,1.080162425E-1
1.580607437E1,-2.972130580E-3,1.932095468E-2,2.174053252E-2,2.923668251E-2
1.581599138E1,-7.192851836E-2,4.489492178E-2,6.682256520E-2,1.079561067E-1
1.582590838E1,1.055044184E-2,1.646342039E-2,1.228710508E-1,1.244172463E-1
1.583582538E1,8.688686544E-2,-1.285744250E-2,1.675104493E-1,1.891411955E-1
1.584574238E1,-6.385981757E-3,2.583533764E-2,1.925394559E-1,1.943699758E-1
1.585565937E1,6.004725024E-3,1.562960744E-3,1.933399397E-1,1.934394785E-1
1.586557637E1,7.987863944E-2,-1.476597369E-2,1.908379161E-1,2.074071871E-1
1.587549338E1,6.603658064E-2,-7.539399862E-3,1.945526522E-1,2.055928185E-1
1.588541038E1,4.435689571E-2,-9.226906300E-3,1.912980920E-1,1.965900048E-1
1.589532738E1,5.506106450E-2,-6.105077863E-3,1.589042249E-1,1.682841214E-1
1.590524438E1,4.105140075E-2,5.358973145E-3,1.509090346E-1,1.564847367E-1
1.591516138E1,4.709612438E-2,-1.072496295E-2,1.858139884E-1,1.919893436E-1
1.592507737E1,3.071894129E-2,-1.604242086E-2,1.872734535E-1,1.904530362E-1
1.593499438E1,4.293354638E-2,-8.001329899E-3,2.011377865E-1,2.058244880E-1
1.594491138E1,8.319409294E-2,-1.867893040E-2,2.137753737E-1,2.301522755E-1
1.595482838E1,9.012987742E-2,-2.234805822E-2,1.786871096E-1,2.013750572E-1
1.596474538E1,4.128015479E-2,1.548927426E-2,1.754810813E-1,1.809352887E-1
1.597466237E1,2.814065723E-2,1.210432112E-2,2.007878307E-1,2.031112112E-1
