"Time (s)","Acceleration x (m/s^2)","Acceleration y (m/s^2)","Acceleration z (m/s^2)","Absolute acceleration (m/s^2)"
3.042791668E-3,-1.299298096E-1,7.768844604E-2,9.949958954E0,9.951110513E0
1.295979167E-2,-1.293310547E-1,7.948471069E-2,9.962682495E0,9.963838961E0
2.287679167E-2,-1.121168518E-1,8.277786255E-2,9.966424713E0,9.967399055E0
3.279379167E-2,-8.337661743E-2,8.113128662E-2,9.980345764E0,9.981023771E0
4.271079167E-2,-8.816665649E-2,8.637039185E-2,9.973909149E0,9.974672773E0
5.262779167E-2,-1.176553345E-1,9.011260986E-2,9.944121094E0,9.945225356E0
6.254479167E-2,-1.287322998E-1,7.723937988E-2,9.962981873E0,9.964112892E0
7.246179167E-2,-1.293310547E-1,7.244934082E-2,9.960437164E0,9.961540239E0
8.237879167E-2,-1.219963074E-1,8.562194824E-2,9.975406036E0,9.976519424E0
9.229570833E-2,-1.157093811E-1,9.011260986E-2,9.967173157E0,9.968252087E0
1.022127083E-1,-1.002914429E-1,9.101074219E-2,9.965825958E0,9.966746127E0
1.121297083E-1,-1.110690308E-1,8.622070312E-2,9.963730316E0,9.964722382E0
1.220467083E-1,-1.193019104E-1,6.885681152E-2,9.952204285E0,9.953157506E0
1.319637083E-1,-1.254391479E-1,7.559280396E-2,9.954299927E0,9.955377255E0
1.418807083E-1,-1.170565796E-1,8.173004150E-2,9.966275024E0,9.967297523E0
1.517977083E-1,-1.118174744E-1,8.547225952E-2,9.977950745E0,9.978943317E0
1.617147083E-1,-1.160087585E-1,8.068222046E-2,9.950707397E0,9.951710675E0
1.716317083E-1,-1.194515991E-1,7.619155884E-2,9.956694946E0,9.957702953E0
1.815487083E-1,-1.106199646E-1,8.337661743E-2,9.968220978E0,9.969183412E0
1.914657083E-1,-1.097218323E-1,8.756790161E-2,9.953252106E0,9.954242035E0
2.013827083E-1,-1.194515991E-1,8.547225952E-2,9.981692963E0,9.982773592E0
2.112997083E-1,-1.142124939E-1,8.337661743E-2,9.942025452E0,9.943031039E0
2.212167083E-1,-1.124162292E-1,8.801696777E-2,9.973909149E0,9.974930983E0
2.311337083E-1,-1.158590698E-1,8.427474976E-2,9.962083740E0,9.963113871E0
2.410507083E-1,-1.145118713E-1,8.562194824E-2,9.955048370E0,9.956075137E0
2.509677083E-1,-1.230441284E-1,8.262817383E-2,9.961634674E0,9.962737207E0
2.608847083E-1,-1.154100037E-1,7.843688965E-2,9.957443390E0,9.958421094E0
2.708017083E-1,-1.172062683E-1,7.484436035E-2,9.951455841E0,9.952427460E0
2.807187083E-1,-1.118174744E-1,8.831634521E-2,9.954748993E0,9.955768701E0
2.906357083E-1,-1.041833496E-1,9.879455566E-2,9.967622223E0,9.968656244E0
3.005527083E-1,-1.040336609E-1,9.175918579E-2,9.975555725E0,9.976520174E0
3.104697083E-1,-1.215472412E-1,7.559280396E-2,9.969568176E0,9.970595650E0
3.203867083E-1,-1.266366577E-1,6.930587769E-2,9.950408020E0,9.951455166E0
3.303037083E-1,-1.233435059E-1,8.113128662E-2,9.959089966E0,9.960184178E0
3.402207083E-1,-1.080752563E-1,8.652008057E-2,9.972262573E0,9.973223492E0
3.501377083E-1,-9.535171509E-2,7.828720093E-2,9.938881989E0,9.939647681E0
3.600547083E-1,-9.879455566E-2,8.262817383E-2,9.973460083E0,9.974291644E0
3.699717083E-1,-1.097218323E-1,8.023315430E-2,9.967622223E0,9.968548993E0
3.798887083E-1,-1.236428833E-1,7.723937988E-2,9.965376892E0,9.966443201E0
3.898057083E-1,-1.386117554E-1,8.891510010E-2,9.964029694E0,9.965390451E0
3.997227083E-1,-1.178050232E-1,7.484436035E-2,9.954898682E0,9.955877031E0
4.096397083E-1,-1.088237000E-1,7.753875732E-2,9.953850861E0,9.954747702E0
4.195567083E-1,-1.022373962E-1,8.068222046E-2,9.965526581E0,9.966377584E0
4.294737083E-1,-1.079255676E-1,9.684860229E-2,9.961634674E0,9.962690046E0
4.393907083E-1,-1.095721436E-1,7.274871826E-2,9.959838409E0,9.960706781E0
4.493077083E-1,-1.284329224E-1,6.855743408E-2,9.967322845E0,9.968386020E0
4.592247083E-1,-1.311273193E-1,7.873626709E-2,9.950557709E0,9.951733140E0
4.691417083E-1,-1.121168518E-1,8.487350464E-2,9.964179382E0,9.965171572E0
4.790587083E-1,-9.984237671E-2,8.996292114E-2,9.962083740E0,9.962990228E0
4.889757083E-1,-1.010398865E-1,8.487350464E-2,9.961185608E0,9.962059591E0
4.988927083E-1,-1.197509766E-1,7.484436035E-2,9.964478760E0,9.965479363E0
5.088097083E-1,-1.242416382E-1,8.412506104E-2,9.952503662E0,9.953634620E0
5.187267083E-1,-1.261875916E-1,8.592132568E-2,9.960137787E0,9.961307671E0
5.286437083E-1,-1.191522217E-1,8.577163696E-2,9.973460083E0,9.974540594E0
5.385607083E-1,-1.050814819E-1,7.723937988E-2,9.970017242E0,9.970870165E0
5.484777083E-1,-9.669891357E-2,8.756790161E-2,9.979597321E0,9.980449965E0
5.583947083E-1,-1.161584473E-1,8.487350464E-2,9.979747009E0,9.980783870E0
5.683117083E-1,-1.330732727E-1,7.783813477E-2,9.954599304E0,9.955793016E0
5.782287083E-1,-1.366658020E-1,7.978408813E-2,9.952503662E0,9.953761710E0
5.881457083E-1,-1.282832336E-1,7.559280396E-2,9.961335297E0,9.962448080E0
5.980627083E-1,-1.094224548E-1,8.217910767E-2,9.970615997E0,9.971555046E0
6.079797083E-1,-1.010398865E-1,8.741821289E-2,9.981243896E0,9.982138084E0
6.178967083E-1,-1.005908203E-1,8.023315430E-2,9.973310394E0,9.974140369E0
6.278137083E-1,-1.179547119E-1,7.828720093E-2,9.976453857E0,9.977458282E0
6.377307083E-1,-1.272354126E-1,7.499404907E-2,9.952353973E0,9.953449782E0
6.476477083E-1,-1.279838562E-1,7.888595581E-2,9.958191833E0,9.959326657E0
6.575647083E-1,-1.124162292E-1,8.577163696E-2,9.970166931E0,9.971169581E0
6.674817083E-1,-1.016386414E-1,9.205856323E-2,9.978699188E0,9.979641410E0
6.773987083E-1,-1.122665405E-1,8.487350464E-2,9.981543274E0,9.982535420E0
6.873157083E-1,-1.074765015E-1,7.873626709E-2,9.971065063E0,9.971955129E0
6.972327083E-1,-1.155596924E-1,7.694000244E-2,9.969418488E0,9.970385087E0
7.071497083E-1,-1.221459961E-1,8.083190918E-2,9.964179382E0,9.965255852E0
7.170667083E-1,-1.149609375E-1,8.547225952E-2,9.959089966E0,9.960120204E0
7.269837083E-1,-1.103205872E-1,8.442443848E-2,9.984087982E0,9.985054379E0
7.369007083E-1,-1.200503540E-1,7.559280396E-2,9.986333313E0,9.987340957E0
7.468177083E-1,-1.200503540E-1,7.379653931E-2,9.970466309E0,9.971462101E0
7.567347083E-1,-1.200503540E-1,8.382568359E-2,9.955647125E0,9.956723784E0
7.666517083E-1,-1.194515991E-1,8.202941895E-2,9.959688721E0,9.960742790E0
7.765687083E-1,-1.077758789E-1,8.397537231E-2,9.958940277E0,9.959877456E0
7.864857083E-1,-1.052311707E-1,8.457412720E-2,9.984686737E0,9.985599412E0
7.964027083E-1,-9.789642334E-2,8.771759033E-2,9.980794830E0,9.981660359E0
8.063197083E-1,-1.160087585E-1,8.158035278E-2,9.969268799E0,9.970277517E0
8.162367083E-1,-1.242416382E-1,7.529342651E-2,9.959539032E0,9.960598517E0
8.261537083E-1,-1.321751404E-1,7.499404907E-2,9.947863312E0,9.949024015E0
8.360707083E-1,-1.196012878E-1,7.439529419E-2,9.960437164E0,9.961433011E0
8.459877083E-1,-9.774673462E-2,8.996292114E-2,9.985435181E0,9.986318816E0
8.559047083E-1,-9.924362183E-2,9.205856323E-2,9.979297943E0,9.980216005E0
8.658217083E-1,-1.047821045E-1,8.637039185E-2,9.972112885E0,9.973037377E0
8.757387083E-1,-1.149609375E-1,7.274871826E-2,9.967023468E0,9.967951906E0
8.856557083E-1,-1.221459961E-1,8.831634521E-2,9.965376892E0,9.966516745E0
8.955727083E-1,-1.242416382E-1,8.786727905E-2,9.977052612E0,9.978213040E0
9.054897083E-1,-1.073268127E-1,8.427474976E-2,9.977950745E0,9.978883822E0
9.154067083E-1,-9.924362183E-2,8.173004150E-2,9.972262573E0,9.973091292E0
9.253237083E-1,-1.067280579E-1,7.694000244E-2,9.966275024E0,9.967143448E0
9.352407083E-1,-1.178050232E-1,8.158035278E-2,9.956694946E0,9.957726027E0
9.451577083E-1,-1.252894592E-1,8.457412720E-2,9.956096191E0,9.957243675E0
9.550747083E-1,-1.181044006E-1,8.517288208E-2,9.957144012E0,9.958208672E0
9.649917083E-1,-1.139131165E-1,7.813751221E-2,9.955198059E0,9.956156390E0
9.749087083E-1,-1.143621826E-1,8.337661743E-2,9.961784363E0,9.962789673E0
9.848257083E-1,-1.047821045E-1,9.370513916E-2,9.967023468E0,9.968014685E0
9.947427083E-1,-1.236428833E-1,8.397537231E-2,9.957443390E0,9.958565072E0
1.004659708E0,-1.327738953E-1,8.128097534E-2,9.959988098E0,9.961204667E0
1.014576708E0,-1.050814819E-1,8.562194824E-2,9.971364441E0,9.972285698E0
1.024493708E0,-1.014889526E-1,7.499404907E-2,9.974956970E0,9.975755143E0
1.034410708E0,-9.774673462E-2,8.382568359E-2,9.979447632E0,9.980278363E0
1.044327708E0,-1.064286804E-1,7.768844604E-2,9.961934052E0,9.962805459E0
1.054244708E0,-1.219963074E-1,7.499404907E-2,9.958491211E0,9.959520792E0
1.064161708E0,-1.246907043E-1,7.319778442E-2,9.960736542E0,9.961785891E0
1.074078708E0,-1.224453735E-1,8.442443848E-2,9.960736542E0,9.961846857E0
1.083995708E0,-1.145118713E-1,9.011260986E-2,9.964778137E0,9.965843495E0
1.093912292E0,-1.067280579E-1,7.963439941E-2,9.977351990E0,9.978240589E0
1.103829292E0,-1.082249451E-1,7.185058594E-2,9.965975647E0,9.966822249E0
1.113746292E0,-1.137634277E-1,8.592132568E-2,9.957293701E0,9.958314237E0
1.123663292E0,-1.178050232E-1,8.202941895E-2,9.944121094E0,9.945157172E0
1.133580292E0,-1.070274353E-1,7.798782349E-2,9.966275024E0,9.967154801E0
1.143497292E0,-1.071771240E-1,8.053253174E-2,9.975406036E0,9.976306832E0
1.153414292E0,-1.070274353E-1,8.217910767E-2,9.978399811E0,9.979312154E0
1.163331292E0,-1.112187195E-1,8.696914673E-2,9.971364441E0,9.972363915E0
1.173248292E0,-1.173559570E-1,9.774673462E-2,9.954150238E0,9.955321884E0
1.183165292E0,-1.287322998E-1,8.292755127E-2,9.946067047E0,9.947245784E0
1.193081292E0,-1.203497314E-1,7.634124756E-2,9.960586853E0,9.961606422E0
1.202998292E0,-1.016386414E-1,8.427474976E-2,9.977052612E0,9.977926211E0
1.212915292E0,-9.175918579E-2,8.427474976E-2,9.963880005E0,9.964658887E0
1.222832292E0,-1.088237000E-1,7.888595581E-2,9.970166931E0,9.971072872E0
1.232749292E0,-1.136137390E-1,7.798782349E-2,9.955946503E0,9.956900168E0
1.242666292E0,-1.311273193E-1,7.828720093E-2,9.953401794E0,9.954573348E0
1.252583292E0,-1.315763855E-1,8.487350464E-2,9.960586853E0,9.961817420E0
1.262500292E0,-1.119671631E-1,9.460327148E-2,9.968520355E0,9.969598011E0
1.272417292E0,-9.355545044E-2,8.891510010E-2,9.973759460E0,9.974594543E0
1.282334292E0,-9.175918579E-2,9.086105347E-2,9.974507904E0,9.975343774E0
1.292251292E0,-1.125659180E-1,8.352630615E-2,9.962832184E0,9.963818186E0
1.302168292E0,-1.215472412E-1,7.379653931E-2,9.953252106E0,9.954267785E0
1.312085292E0,-1.363664246E-1,7.918533325E-2,9.953401794E0,9.954650843E0
1.322002292E0,-1.187031555E-1,8.008346558E-2,9.961784363E0,9.962813433E0
1.331919292E0,-1.121168518E-1,7.574249268E-2,9.970615997E0,9.971534008E0
1.341836292E0,-1.011895752E-1,7.978408813E-2,9.968670044E0,9.969502860E0
1.351753292E0,-1.056802368E-1,8.187973022E-2,9.958042145E0,9.958939500E0
1.361670292E0,-1.215472412E-1,8.352630615E-2,9.955796814E0,9.956889101E0
1.371587292E0,-1.181044006E-1,7.723937988E-2,9.957742767E0,9.958742671E0
1.381504292E0,-1.065783691E-1,8.098159790E-2,9.958491211E0,9.959390753E0
1.391421292E0,-1.115180969E-1,7.813751221E-2,9.970017242E0,9.970947075E0
1.401338292E0,-1.130149841E-1,8.786727905E-2,9.975555725E0,9.976582835E0
1.411255292E0,-1.053808594E-1,8.158035278E-2,9.962083740E0,9.962975104E0
1.421172292E0,-1.167572021E-1,8.457412720E-2,9.955647125E0,9.956690952E0
1.431089292E0,-1.178050232E-1,8.337661743E-2,9.955647125E0,9.956693194E0
1.441006292E0,-1.109193420E-1,8.726852417E-2,9.967921600E0,9.968920700E0
1.450923292E0,-1.149609375E-1,8.532257080E-2,9.963430939E0,9.964459445E0
1.460840292E0,-1.062789917E-1,9.550140381E-2,9.975406036E0,9.976429288E0
1.470757292E0,-1.038839722E-1,8.113128662E-2,9.964628448E0,9.965500202E0
1.480674292E0,-1.107696533E-1,7.918533325E-2,9.958790588E0,9.959721393E0
1.490591292E0,-1.284329224E-1,7.963439941E-2,9.955796814E0,9.956943650E0
1.500508292E0,-1.245410156E-1,7.514373779E-2,9.954000549E0,9.955063233E0
1.510425292E0,-1.216969299E-1,7.813751221E-2,9.962383118E0,9.963432792E0
1.520342292E0,-1.077758789E-1,7.978408813E-2,9.961185608E0,9.962088127E0
1.530259292E0,-1.011895752E-1,8.951385498E-2,9.958191833E0,9.959108226E0
1.540176292E0,-1.107696533E-1,8.487350464E-2,9.977351990E0,9.978327824E0
1.550093292E0,-1.176553345E-1,8.202941895E-2,9.957742767E0,9.958775659E0
1.560010292E0,-1.210981750E-1,8.517288208E-2,9.954299927E0,9.955400857E0
1.569927292E0,-1.154100037E-1,7.259902954E-2,9.960586853E0,9.961519992E0
1.579844292E0,-1.091230774E-1,8.158035278E-2,9.965376892E0,9.966308233E0
1.589761292E0,-1.044827271E-1,8.756790161E-2,9.967173157E0,9.968105412E0
1.599678292E0,-1.041833496E-1,8.966354370E-2,9.963580627E0,9.964528721E0
1.609595292E0,-1.209484863E-1,8.262817383E-2,9.963730316E0,9.964806961E0
1.619512292E0,-1.218466187E-1,8.008346558E-2,9.964179382E0,9.965246145E0
1.629429292E0,-1.185534668E-1,9.265731812E-2,9.960586853E0,9.961723283E0
1.639346292E0,-1.170565796E-1,8.158035278E-2,9.965975647E0,9.966996950E0
1.649263292E0,-1.122665405E-1,8.337661743E-2,9.971214752E0,9.972195298E0
1.659180292E0,-1.077758789E-1,8.158035278E-2,9.955347748E0,9.956265353E0
1.669097292E0,-1.161584473E-1,7.768844604E-2,9.963430939E0,9.964410888E0
1.679014292E0,-1.152603149E-1,7.993377686E-2,9.967622223E0,9.968609087E0
1.688931292E0,-1.109193420E-1,8.741821289E-2,9.964778137E0,9.965778864E0
1.698848292E0,-1.079255676E-1,7.858657837E-2,9.959539032E0,9.960433801E0
1.708765292E0,-1.091230774E-1,8.592132568E-2,9.976753235E0,9.977719951E0
1.718682292E0,-1.176553345E-1,8.592132568E-2,9.966574402E0,9.967639167E0
1.728599292E0,-1.079255676E-1,8.981323242E-2,9.968520355E0,9.969509136E0
1.738516292E0,-1.119671631E-1,8.337661743E-2,9.974358215E0,9.975335088E0
1.748433292E0,-1.197509766E-1,8.711883545E-2,9.963730316E0,9.964830746E0
1.758350292E0,-1.163081360E-1,7.783813477E-2,9.960736542E0,9.961719671E0
1.768267292E0,-1.145118713E-1,8.083190918E-2,9.959988098E0,9.960974334E0
1.778184292E0,-1.104702759E-1,9.610015869E-2,9.966873779E0,9.967949230E0
1.788100292E0,-1.055305481E-1,9.205856323E-2,9.967173157E0,9.968156911E0
1.798017292E0,-9.699829102E-2,8.277786255E-2,9.964179382E0,9.964995314E0
1.807934292E0,-1.052311707E-1,8.173004150E-2,9.967921600E0,9.968812087E0
1.817851292E0,-1.173559570E-1,7.499404907E-2,9.963580627E0,9.964553951E0
1.827768292E0,-1.222956848E-1,7.993377686E-2,9.952952728E0,9.954024998E0
1.837685292E0,-1.145118713E-1,8.577163696E-2,9.960586853E0,9.961614337E0
1.847602292E0,-1.053808594E-1,8.771759033E-2,9.965227203E0,9.966170414E0
1.857519292E0,-1.118174744E-1,8.921447754E-2,9.966424713E0,9.967451226E0
1.867436292E0,-1.158590698E-1,9.116043091E-2,9.970017242E0,9.971107128E0
1.877353292E0,-1.136137390E-1,8.547225952E-2,9.964778137E0,9.965792337E0
1.887270292E0,-1.181044006E-1,8.711883545E-2,9.954299927E0,9.955381729E0
1.897187292E0,-1.113684082E-1,8.547225952E-2,9.966424713E0,9.967413405E0
1.907104292E0,-1.112187195E-1,8.337661743E-2,9.973011017E0,9.973979647E0
1.917021292E0,-1.124162292E-1,7.843688965E-2,9.966724091E0,9.967666670E0
1.926938292E0,-1.103205872E-1,8.502319336E-2,9.963281250E0,9.964254756E0
1.936855292E0,-1.083746338E-1,8.472381592E-2,9.964927826E0,9.965877270E0
1.946772292E0,-1.173559570E-1,8.217910767E-2,9.957443390E0,9.958474014E0
1.956689292E0,-1.104702759E-1,8.457412720E-2,9.961035919E0,9.962007481E0
1.966606292E0,-1.107696533E-1,8.457412720E-2,9.965376892E0,9.966351353E0
1.976523292E0,-1.097218323E-1,7.828720093E-2,9.973160706E0,9.974071497E0
1.986440292E0,-1.095721436E-1,8.487350464E-2,9.961634674E0,9.962598805E0
1.996357292E0,-1.228944397E-1,8.277786255E-2,9.955198059E0,9.956300699E0
2.006274292E0,-1.225950623E-1,8.711883545E-2,9.962682495E0,9.963817629E0
2.016191292E0,-1.203497314E-1,8.861572266E-2,9.960437164E0,9.961558377E0
2.026108292E0,-1.059796143E-1,8.711883545E-2,9.963281250E0,9.964225742E0
2.036025292E0,-1.076261902E-1,7.948471069E-2,9.972412262E0,9.973309758E0
2.045942292E0,-1.070274353E-1,8.322692871E-2,9.972112885E0,9.973034492E0
2.055859292E0,-1.182540894E-1,8.711883545E-2,9.959239655E0,9.960322696E0
2.065776292E0,-1.237925720E-1,7.469467163E-2,9.958341522E0,9.959391034E0
2.075693292E0,-1.302291870E-1,8.262817383E-2,9.966873779E0,9.968067014E0
2.085610292E0,-1.184037781E-1,9.071136475E-2,9.968969421E0,9.970085222E0
2.095527292E0,-9.909393311E-2,8.846603394E-2,9.967771912E0,9.968657017E0
2.105444292E0,-1.022373962E-1,9.385482788E-2,9.963880005E0,9.964846510E0
2.115361292E0,-1.089733887E-1,8.457412720E-2,9.961335297E0,9.962290343E0
2.125278292E0,-1.154100037E-1,8.427474976E-2,9.962083740E0,9.963108659E0
2.135195292E0,-1.257385254E-1,8.128097534E-2,9.958790588E0,9.959916001E0
2.145112292E0,-1.188528442E-1,8.487350464E-2,9.965676270E0,9.966746361E0
2.155029292E0,-1.100212097E-1,8.622070312E-2,9.963730316E0,9.964710758E0
2.164946292E0,-1.098715210E-1,8.397537231E-2,9.960736542E0,9.961696445E0
2.174863292E0,-1.110690308E-1,8.771759033E-2,9.961784363E0,9.962789689E0
2.184780292E0,-1.113684082E-1,8.577163696E-2,9.957892456E0,9.958884569E0
2.194697292E0,-1.136137390E-1,7.978408813E-2,9.962832184E0,9.963799411E0
2.204614292E0,-1.121168518E-1,8.322692871E-2,9.964329071E0,9.965307358E0
2.214530292E0,-1.061293030E-1,8.696914673E-2,9.959688721E0,9.960633839E0
2.224447292E0,-1.155596924E-1,7.783813477E-2,9.961484985E0,9.962459331E0
2.234364292E0,-1.170565796E-1,8.951385498E-2,9.966125336E0,9.967214715E0
2.244281292E0,-1.187031555E-1,9.879455566E-2,9.964329071E0,9.965525808E0
2.254198292E0,-1.118174744E-1,8.232879639E-2,9.963281250E0,9.964248815E0
2.264115292E0,-1.101708984E-1,7.574249268E-2,9.961035919E0,9.961933102E0
2.274032292E0,-1.137634277E-1,7.589218140E-2,9.967771912E0,9.968709978E0
2.283949292E0,-1.206491089E-1,8.352630615E-2,9.966125336E0,9.967205579E0
2.293866292E0,-1.145118713E-1,9.220825195E-2,9.965227203E0,9.966311682E0
2.303783292E0,-1.172062683E-1,8.577163696E-2,9.957293701E0,9.958352873E0
2.313700292E0,-1.137634277E-1,8.128097534E-2,9.961335297E0,9.962316478E0
2.323617292E0,-1.125659180E-1,7.843688965E-2,9.955497437E0,9.956442770E0
2.333534292E0,-1.092727661E-1,8.622070312E-2,9.968969421E0,9.969941117E0
2.343451292E0,-1.213975525E-1,8.562194824E-2,9.962233429E0,9.963340975E0
2.353368292E0,-1.175056458E-1,8.666976929E-2,9.962682495E0,9.963752392E0
2.363285292E0,-1.133143616E-1,8.247848511E-2,9.961335297E0,9.962321202E0
2.373202292E0,-1.122665405E-1,7.978408813E-2,9.957144012E0,9.958096513E0
2.383119292E0,-1.139131165E-1,8.547225952E-2,9.954898682E0,9.955917309E0
2.393036292E0,-1.083746338E-1,8.247848511E-2,9.973759460E0,9.974689245E0
2.402953292E0,-1.107696533E-1,7.649093628E-2,9.961185608E0,9.962095136E0
2.412870292E0,-1.190025330E-1,8.352630615E-2,9.960437164E0,9.961498218E0
2.422787292E0,-1.230441284E-1,8.083190918E-2,9.959988098E0,9.961076075E0
2.432704292E0,-1.249900818E-1,8.337661743E-2,9.964029694E0,9.965162413E0
2.442621292E0,-1.131646729E-1,9.475296021E-2,9.957593079E0,9.958686876E0
2.452538292E0,-1.023870850E-1,8.696914673E-2,9.953102417E0,9.954008965E0
2.462455292E0,-1.104702759E-1,8.816665649E-2,9.959838409E0,9.960841239E0
2.472372292E0,-1.125659180E-1,8.816665649E-2,9.961934052E0,9.962960127E0
2.482289292E0,-1.125659180E-1,8.487350464E-2,9.962981873E0,9.963979245E0
2.492206292E0,-1.203497314E-1,8.202941895E-2,9.964628448E0,9.965692801E0
2.502123292E0,-1.139131165E-1,7.963439941E-2,9.956096191E0,9.957066295E0
2.512040292E0,-1.074765015E-1,9.026229858E-2,9.957293701E0,9.958282800E0
2.521957292E0,-1.106199646E-1,8.472381592E-2,9.963880005E0,9.964854221E0
2.531874292E0,-1.179547119E-1,8.517288208E-2,9.962682495E0,9.963744790E0
2.541791292E0,-1.161584473E-1,8.592132568E-2,9.954599304E0,9.955647772E0
2.551708292E0,-1.130149841E-1,7.694000244E-2,9.968071289E0,9.969008846E0
2.561625292E0,-1.167572021E-1,8.771759033E-2,9.971065063E0,9.972134432E0
2.571542292E0,-1.119671631E-1,8.113128662E-2,9.962532806E0,9.963492302E0
2.581458292E0,-1.110690308E-1,7.664062500E-2,9.959539032E0,9.960453195E0
2.591375292E0,-1.193019104E-1,7.978408813E-2,9.958191833E0,9.959226026E0
2.601292292E0,-1.173559570E-1,8.307723999E-2,9.961335297E0,9.962372967E0
2.611209292E0,-1.130149841E-1,8.382568359E-2,9.959838409E0,9.960832308E0
2.621126292E0,-1.136137390E-1,8.831634521E-2,9.952353973E0,9.953394269E0
2.631043292E0,-1.176553345E-1,8.322692871E-2,9.954000549E0,9.955043769E0
2.640960292E0,-1.166075134E-1,8.517288208E-2,9.967622223E0,9.968668141E0
2.650877292E0,-1.053808594E-1,8.846603394E-2,9.957593079E0,9.958543633E0
2.660794292E0,-1.152603149E-1,7.484436035E-2,9.964179382E0,9.965127063E0
2.670711292E0,-1.133143616E-1,7.783813477E-2,9.966724091E0,9.967672146E0
2.680628292E0,-1.173559570E-1,8.008346558E-2,9.967771912E0,9.968784413E0
2.690545292E0,-1.124162292E-1,7.888595581E-2,9.956694946E0,9.957642023E0
2.700462292E0,-1.034349060E-1,8.921447754E-2,9.966275024E0,9.967211037E0
2.710379292E0,-1.040336609E-1,8.876541138E-2,9.966275024E0,9.967213260E0
2.720296292E0,-1.146615601E-1,7.933502197E-2,9.961634674E0,9.962610436E0
2.730213292E0,-1.107696533E-1,8.038284302E-2,9.951306152E0,9.952247257E0
2.740130292E0,-1.101708984E-1,8.307723999E-2,9.962083740E0,9.963039290E0
2.750047292E0,-1.113684082E-1,8.472381592E-2,9.956395569E0,9.957378860E0
2.759964292E0,-1.110690308E-1,8.891510010E-2,9.959539032E0,9.960555203E0
2.769881292E0,-1.142124939E-1,8.202941895E-2,9.954299927E0,9.955293082E0
2.779798292E0,-1.059796143E-1,8.577163696E-2,9.961784363E0,9.962717307E0
2.789715292E0,-1.146615601E-1,9.056167603E-2,9.963430939E0,9.964502233E0
2.799632292E0,-1.196012878E-1,7.679031372E-2,9.959089966E0,9.960104124E0
2.809549292E0,-1.210981750E-1,8.756790161E-2,9.955647125E0,9.956768682E0
2.819466292E0,-1.113684082E-1,8.247848511E-2,9.959089966E0,9.960054145E0
2.829383292E0,-1.113684082E-1,8.592132568E-2,9.963730316E0,9.964723138E0
2.839300292E0,-1.095721436E-1,8.726852417E-2,9.971963196E0,9.972946998E0
2.849217292E0,-1.067280579E-1,9.580078125E-2,9.953850861E0,9.954884009E0
2.859134292E0,-1.191522217E-1,7.813751221E-2,9.968969421E0,9.969987665E0
2.869051292E0,-1.215472412E-1,7.888595581E-2,9.964329071E0,9.965382610E0
2.878968292E0,-1.190025330E-1,8.008346558E-2,9.962832184E0,9.963864716E0
2.888884292E0,-1.107696533E-1,8.652008057E-2,9.962832184E0,9.963823602E0
2.898801292E0,-1.160087585E-1,9.220825195E-2,9.960586853E0,9.961689156E0
2.908718292E0,-1.083746338E-1,8.113128662E-2,9.967622223E0,9.968541524E0
2.918635292E0,-1.149609375E-1,7.514373779E-2,9.970017242E0,9.970963164E0
2.928552292E0,-1.215472412E-1,7.963439941E-2,9.961035919E0,9.962095761E0
2.938469292E0,-1.104702759E-1,8.128097534E-2,9.965526581E0,9.966470304E0
2.948386292E0,-1.124162292E-1,8.442443848E-2,9.969268799E0,9.970260041E0
2.958303292E0,-1.128652954E-1,8.951385498E-2,9.973460083E0,9.974500355E0
2.968220292E0,-1.140628052E-1,8.173004150E-2,9.961784363E0,9.962772597E0
2.978137292E0,-1.139131165E-1,8.262817383E-2,9.955048370E0,9.956042972E0
2.988054292E0,-1.149609375E-1,8.472381592E-2,9.961335297E0,9.962358909E0
2.997971292E0,-1.227447510E-1,8.232879639E-2,9.959389343E0,9.960485952E0
3.007888292E0,-1.154100037E-1,9.265731812E-2,9.966873779E0,9.967972601E0
3.017805292E0,-1.080752563E-1,9.145980835E-2,9.963281250E0,9.964287151E0
3.027722292E0,-1.109193420E-1,8.876541138E-2,9.967173157E0,9.968185549E0
3.037639292E0,-1.080752563E-1,8.382568359E-2,9.970615997E0,9.971554060E0
3.047556292E0,-1.151106262E-1,7.738906860E-2,9.958940277E0,9.959906173E0
3.057473292E0,-1.178050232E-1,7.259902954E-2,9.966724091E0,9.967684673E0
3.067390292E0,-1.172062683E-1,8.352630615E-2,9.962832184E0,9.963871691E0
3.077307292E0,-1.124162292E-1,7.738906860E-2,9.964329071E0,9.965263685E0
3.087224292E0,-1.049317932E-1,7.514373779E-2,9.969268799E0,9.970104194E0
3.097141333E0,-1.109193420E-1,8.352630615E-2,9.968520355E0,9.969487340E0
3.107058333E0,-1.191522217E-1,8.547225952E-2,9.954898682E0,9.955978632E0
3.116975333E0,-1.200503540E-1,7.484436035E-2,9.968520355E0,9.969524153E0
3.126892333E0,-1.221459961E-1,8.367599487E-2,9.965676270E0,9.966776050E0
3.136809333E0,-1.176553345E-1,8.247848511E-2,9.962832184E0,9.963868255E0
3.146726333E0,-1.097218323E-1,8.547225952E-2,9.960137787E0,9.961108830E0
3.156643333E0,-1.221459961E-1,8.412506104E-2,9.956694946E0,9.957799502E0
3.166560333E0,-1.263372803E-1,8.771759033E-2,9.964927826E0,9.966114692E0
3.176477333E0,-1.163081360E-1,8.966354370E-2,9.953850861E0,9.954934158E0
3.186393333E0,-1.113684082E-1,7.664062500E-2,9.956395569E0,9.957313364E0
3.196310333E0,-1.035845947E-1,7.634124756E-2,9.971963196E0,9.972793377E0
3.206227333E0,-1.091230774E-1,8.681945801E-2,9.975106659E0,9.976081311E0
3.216144333E0,-1.182540894E-1,8.173004150E-2,9.969717865E0,9.970754141E0
3.226061333E0,-1.167572021E-1,8.068222046E-2,9.958191833E0,9.959203104E0
3.235978333E0,-1.130149841E-1,8.068222046E-2,9.956245880E0,9.957214170E0
3.245895333E0,-1.119671631E-1,8.726852417E-2,9.963730316E0,9.964741555E0
3.255812333E0,-1.157093811E-1,6.795867920E-2,9.964478760E0,9.965382281E0
3.265729333E0,-1.104702759E-1,8.098159790E-2,9.965077515E0,9.966018843E0
3.275646333E0,-1.145118713E-1,8.217910767E-2,9.960736542E0,9.961733726E0
3.285563333E0,-1.167572021E-1,8.696914673E-2,9.957293701E0,9.958357984E0
3.295480333E0,-1.148112488E-1,8.412506104E-2,9.959389343E0,9.960406354E0
3.305397333E0,-1.055305481E-1,8.083190918E-2,9.968819733E0,9.969705981E0
3.315314333E0,-1.157093811E-1,8.592132568E-2,9.971663818E0,9.972705272E0
3.325231333E0,-1.122665405E-1,8.472381592E-2,9.962532806E0,9.963525572E0
3.335148333E0,-1.125659180E-1,8.202941895E-2,9.971065063E0,9.972037826E0
3.345065333E0,-1.152603149E-1,7.529342651E-2,9.958491211E0,9.959442818E0
3.354982333E0,-1.131646729E-1,9.415420532E-2,9.968520355E0,9.969607281E0
3.364899333E0,-1.148112488E-1,9.086105347E-2,9.967472534E0,9.968547842E0
3.374816333E0,-1.179547119E-1,7.873626709E-2,9.963281250E0,9.964290541E0
3.384733333E0,-1.199006653E-1,8.292755127E-2,9.957892456E0,9.958959550E0
3.394650333E0,-1.231938171E-1,8.726852417E-2,9.970316620E0,9.971459573E0
3.404567333E0,-1.212478638E-1,8.741821289E-2,9.963430939E0,9.964552125E0
3.414484333E0,-1.124162292E-1,7.978408813E-2,9.962682495E0,9.963636154E0
3.424401333E0,-1.172062683E-1,7.708969116E-2,9.959089966E0,9.960077965E0
3.434318333E0,-1.104702759E-1,7.768844604E-2,9.966724091E0,9.967639052E0
3.444235333E0,-1.086740112E-1,8.472381592E-2,9.971663818E0,9.972615879E0
3.454152333E0,-1.133143616E-1,8.173004150E-2,9.964778137E0,9.965757536E0
3.464069333E0,-1.233435059E-1,8.771759033E-2,9.953701172E0,9.954851833E0
3.473985333E0,-1.258882141E-1,9.370513916E-2,9.959688721E0,9.960925053E0
3.483902333E0,-1.164578247E-1,8.412506104E-2,9.968969421E0,9.970004552E0
3.493819333E0,-1.053808594E-1,8.741821289E-2,9.959539032E0,9.960480149E0
3.503736333E0,-1.074765015E-1,8.996292114E-2,9.963580627E0,9.964566395E0
3.513653333E0,-1.080752563E-1,8.397537231E-2,9.965227203E0,9.966167033E0
3.523570333E0,-1.100212097E-1,8.472381592E-2,9.954898682E0,9.955867142E0
3.533487333E0,-1.110690308E-1,8.307723999E-2,9.953551483E0,9.954517833E0
3.543404333E0,-1.161584473E-1,8.577163696E-2,9.959389343E0,9.960436017E0
3.553321333E0,-1.161584473E-1,7.694000244E-2,9.959988098E0,9.960962577E0
3.563238333E0,-1.204994202E-1,7.334747314E-2,9.964478760E0,9.965477255E0
3.573155333E0,-1.161584473E-1,8.457412720E-2,9.963580627E0,9.964616625E0
3.583072333E0,-1.091230774E-1,8.382568359E-2,9.956545258E0,9.957496074E0
3.592989333E0,-1.077758789E-1,8.143066406E-2,9.957144012E0,9.958060227E0
3.602906333E0,-1.091230774E-1,8.786727905E-2,9.965526581E0,9.966511352E0
3.612823333E0,-1.070274353E-1,8.622070312E-2,9.970017242E0,9.970964482E0
3.622740333E0,-1.128652954E-1,8.277786255E-2,9.961634674E0,9.962617936E0
3.632657333E0,-1.178050232E-1,8.397537231E-2,9.961634674E0,9.962685143E0
3.642574333E0,-1.207987976E-1,8.457412720E-2,9.962682495E0,9.963773765E0
3.652491333E0,-1.191522217E-1,7.858657837E-2,9.967173157E0,9.968195114E0
3.662408333E0,-1.206491089E-1,7.978408813E-2,9.962682495E0,9.963732444E0
3.672325333E0,-1.076261902E-1,8.442443848E-2,9.955048370E0,9.955988095E0
3.682242333E0,-1.079255676E-1,8.592132568E-2,9.961335297E0,9.962290464E0
3.692159333E0,-1.155596924E-1,7.828720093E-2,9.966873779E0,9.967851115E0
3.702076333E0,-1.181044006E-1,7.843688965E-2,9.958191833E0,9.959201052E0
3.711993333E0,-1.187031555E-1,8.098159790E-2,9.961335297E0,9.962371673E0
3.721910333E0,-1.134640503E-1,8.247848511E-2,9.956994324E0,9.957982364E0
3.731827333E0,-1.094224548E-1,8.412506104E-2,9.964478760E0,9.965434624E0
3.741744333E0,-1.046324158E-1,7.649093628E-2,9.958341522E0,9.959184940E0
3.751661333E0,-1.200503540E-1,7.978408813E-2,9.969568176E0,9.970610172E0
3.761578333E0,-1.231938171E-1,8.173004150E-2,9.959838409E0,9.960935581E0
3.771495333E0,-1.094224548E-1,9.056167603E-2,9.966424713E0,9.967436795E0
3.781411333E0,-1.161584473E-1,9.145980835E-2,9.956245880E0,9.957343507E0
3.791328333E0,-1.142124939E-1,8.696914673E-2,9.965526581E0,9.966560498E0
3.801245333E0,-1.173559570E-1,9.011260986E-2,9.970765686E0,9.971863470E0
3.811162333E0,-1.193019104E-1,8.532257080E-2,9.966275024E0,9.967354250E0
3.821079333E0,-1.218466187E-1,8.637039185E-2,9.959389343E0,9.960509150E0
3.830996333E0,-1.155596924E-1,9.056167603E-2,9.950557709E0,9.951640778E0
3.840913333E0,-1.194515991E-1,9.145980835E-2,9.960287476E0,9.961423602E0
3.850830333E0,-1.071771240E-1,8.068222046E-2,9.967322845E0,9.968225582E0
3.860747333E0,-1.041833496E-1,7.604187012E-2,9.965975647E0,9.966810279E0
3.870664333E0,-1.160087585E-1,8.981323242E-2,9.961784363E0,9.962864655E0
3.880581333E0,-1.199006653E-1,8.382568359E-2,9.974657593E0,9.975730400E0
3.890498333E0,-1.197509766E-1,7.738906860E-2,9.968969421E0,9.969989001E0
3.900415333E0,-1.184037781E-1,8.217910767E-2,9.965376892E0,9.966419089E0
3.910332333E0,-1.058299255E-1,8.681945801E-2,9.971364441E0,9.972303967E0
3.920249333E0,-1.152603149E-1,8.322692871E-2,9.961484985E0,9.962499424E0
3.930166333E0,-1.193019104E-1,7.993377686E-2,9.951006775E0,9.952042915E0
3.940083333E0,-1.140628052E-1,7.933502197E-2,9.956844635E0,9.957813990E0
3.950000333E0,-1.131646729E-1,7.664062500E-2,9.960736542E0,9.961674181E0
3.959917333E0,-1.100212097E-1,8.442443848E-2,9.970765686E0,9.971730066E0
3.969834333E0,-1.133143616E-1,8.502319336E-2,9.966125336E0,9.967132150E0
3.979751333E0,-1.149609375E-1,8.786727905E-2,9.962981873E0,9.964032541E0
3.989668333E0,-1.125659180E-1,8.517288208E-2,9.971214752E0,9.972213854E0
3.999585333E0,-1.143621826E-1,8.592132568E-2,9.970615997E0,9.971642019E0
4.009502333E0,-1.119671631E-1,8.008346558E-2,9.966275024E0,9.967225686E0
4.019419333E0,-1.137634277E-1,8.277786255E-2,9.959838409E0,9.960832065E0
4.029336333E0,-1.116677856E-1,8.457412720E-2,9.967771912E0,9.968756159E0
4.039253333E0,-1.209484863E-1,8.427474976E-2,9.962083740E0,9.963174354E0
4.049170333E0,-1.133143616E-1,8.277786255E-2,9.963580627E0,9.964568793E0
4.059087333E0,-1.196012878E-1,8.277786255E-2,9.951904907E0,9.952967795E0
4.069003333E0,-1.172062683E-1,7.873626709E-2,9.956096191E0,9.957097372E0
4.078920333E0,-1.061293030E-1,8.008346558E-2,9.961784363E0,9.962671553E0
4.088837333E0,-1.106199646E-1,7.559280396E-2,9.975256348E0,9.976156086E0
4.098754583E0,-1.131646729E-1,8.592132568E-2,9.968520355E0,9.969532927E0
4.108671583E0,-1.193019104E-1,8.307723999E-2,9.964029694E0,9.965090191E0
4.118588583E0,-1.219963074E-1,8.352630615E-2,9.958491211E0,9.959588693E0
4.128505583E0,-1.074765015E-1,8.382568359E-2,9.957593079E0,9.958525888E0
4.138422583E0,-1.137634277E-1,8.756790161E-2,9.963580627E0,9.964614853E0
4.148339583E0,-1.182540894E-1,8.592132568E-2,9.964329071E0,9.965401163E0
4.158256583E0,-1.136137390E-1,8.996292114E-2,9.966424713E0,9.967478265E0
4.168173583E0,-1.142124939E-1,9.235794067E-2,9.960736542E0,9.961819459E0
4.178090583E0,-1.175056458E-1,8.502319336E-2,9.956395569E0,9.957451945E0
4.188007583E0,-1.085243225E-1,8.846603394E-2,9.967322845E0,9.968306199E0
4.197924583E0,-1.079255676E-1,8.023315430E-2,9.973160706E0,9.974067362E0
4.207841583E0,-1.149609375E-1,8.352630615E-2,9.962981873E0,9.963995205E0
4.217758583E0,-1.207987976E-1,8.173004150E-2,9.973909149E0,9.974975482E0
4.227675583E0,-1.187031555E-1,7.619155884E-2,9.958042145E0,9.959041066E0
4.237592583E0,-1.209484863E-1,9.011260986E-2,9.955198059E0,9.956340553E0
4.247509583E0,-1.043330383E-1,8.187973022E-2,9.954898682E0,9.955782111E0
4.257426583E0,-1.076261902E-1,9.145980835E-2,9.961335297E0,9.962336532E0
4.267343583E0,-1.197509766E-1,8.936416626E-2,9.969418488E0,9.970538162E0
4.277260583E0,-1.182540894E-1,7.738906860E-2,9.968071289E0,9.969073092E0
4.287177583E0,-1.173559570E-1,7.918533325E-2,9.972711639E0,9.973716468E0
4.297094583E0,-1.178050232E-1,8.442443848E-2,9.964778137E0,9.965832069E0
4.307011583E0,-1.169068909E-1,8.577163696E-2,9.948911133E0,9.949967674E0
4.316928583E0,-1.176553345E-1,8.262817383E-2,9.963580627E0,9.964617861E0
4.326845583E0,-1.185534668E-1,8.816665649E-2,9.969867554E0,9.970962206E0
4.336762583E0,-1.097218323E-1,9.205856323E-2,9.963430939E0,9.964460333E0
4.346679583E0,-1.146615601E-1,8.068222046E-2,9.961335297E0,9.962321907E0
4.356596583E0,-1.184037781E-1,8.502319336E-2,9.961634674E0,9.962701129E0
4.366513583E0,-1.133143616E-1,7.544311523E-2,9.964478760E0,9.965408610E0
4.376430583E0,-1.050814819E-1,8.367599487E-2,9.959239655E0,9.960145495E0
4.386346583E0,-1.115180969E-1,8.307723999E-2,9.973160706E0,9.974130166E0
4.396263583E0,-1.140628052E-1,8.487350464E-2,9.961185608E0,9.962200186E0
4.406180583E0,-1.206491089E-1,7.798782349E-2,9.953850861E0,9.954887506E0
4.416097583E0,-1.173559570E-1,8.876541138E-2,9.966125336E0,9.967211542E0
4.426014583E0,-1.064286804E-1,8.427474976E-2,9.965975647E0,9.966900215E0
4.435931583E0,-1.109193420E-1,8.008346558E-2,9.975106659E0,9.976044773E0
4.445848583E0,-1.098715210E-1,8.367599487E-2,9.963880005E0,9.964837087E0
4.455765583E0,-1.139131165E-1,8.367599487E-2,9.958341522E0,9.959344544E0
4.465682583E0,-1.133143616E-1,8.023315430E-2,9.954599304E0,9.955567528E0
4.475599583E0,-1.155596924E-1,9.175918579E-2,9.955796814E0,9.956890277E0
4.485516583E0,-1.185534668E-1,8.936416626E-2,9.958341522E0,9.959448115E0
4.495433583E0,-1.160087585E-1,7.813751221E-2,9.968220978E0,9.969202223E0
4.505350583E0,-1.055305481E-1,8.652008057E-2,9.970166931E0,9.971100795E0
4.515267583E0,-1.133143616E-1,8.292755127E-2,9.968819733E0,9.969808623E0
4.525184583E0,-1.140628052E-1,8.173004150E-2,9.956694946E0,9.957683685E0
4.535101583E0,-1.128652954E-1,8.547225952E-2,9.964329071E0,9.965334812E0
4.545018583E0,-1.127156067E-1,8.382568359E-2,9.965227203E0,9.966217174E0
4.554935583E0,-1.089733887E-1,7.738906860E-2,9.965975647E0,9.966871870E0
4.564852583E0,-1.116677856E-1,7.589218140E-2,9.979447632E0,9.980360933E0
4.574769583E0,-1.188528442E-1,8.217910767E-2,9.960736542E0,9.961784572E0
4.584686583E0,-1.070274353E-1,8.622070312E-2,9.961784363E0,9.962732385E0
4.594603583E0,-1.097218323E-1,7.933502197E-2,9.964179382E0,9.965099281E0
4.604520583E0,-1.092727661E-1,7.604187012E-2,9.966873779E0,9.967762830E0
4.614437583E0,-1.091230774E-1,8.502319336E-2,9.966724091E0,9.967684078E0
4.624354583E0,-1.167572021E-1,8.412506104E-2,9.961484985E0,9.962524398E0
4.634271583E0,-1.237925720E-1,8.232879639E-2,9.961934052E0,9.963043344E0
4.644188583E0,-1.197509766E-1,8.607101440E-2,9.966873779E0,9.967964760E0
4.654105583E0,-1.131646729E-1,8.487350464E-2,9.968520355E0,9.969523952E0
4.664022583E0,-1.130149841E-1,8.622070312E-2,9.955198059E0,9.956212874E0
4.673939583E0,-1.148112488E-1,8.173004150E-2,9.969119110E0,9.970115208E0
4.683856583E0,-1.175056458E-1,7.843688965E-2,9.971514130E0,9.972514927E0
4.693773583E0,-1.107696533E-1,7.813751221E-2,9.962083740E0,9.963005964E0
4.703690583E0,-1.164578247E-1,8.607101440E-2,9.965227203E0,9.966279339E0
4.713607583E0,-1.122665405E-1,7.843688965E-2,9.961934052E0,9.962875397E0
4.723524583E0,-1.152603149E-1,8.277786255E-2,9.961035919E0,9.962046662E0
4.733440583E0,-1.139131165E-1,8.472381592E-2,9.955497437E0,9.956509606E0
4.743357583E0,-1.158590698E-1,7.619155884E-2,9.970615997E0,9.971580208E0
4.753274583E0,-1.092727661E-1,8.068222046E-2,9.973460083E0,9.974385003E0
4.763191583E0,-1.070274353E-1,8.143066406E-2,9.966424713E0,9.967332009E0
4.773108583E0,-1.131646729E-1,8.277786255E-2,9.963580627E0,9.964567092E0
4.783025583E0,-1.148112488E-1,8.232879639E-2,9.965526581E0,9.966527965E0
4.792942583E0,-1.184037781E-1,8.861572266E-2,9.960886230E0,9.961984074E0
4.802859583E0,-1.234931946E-1,8.756790161E-2,9.964927826E0,9.966077728E0
4.812776583E0,-1.100212097E-1,8.337661743E-2,9.960736542E0,9.961693068E0
4.822693583E0,-1.103205872E-1,8.502319336E-2,9.957892456E0,9.958866489E0
4.832610583E0,-1.053808594E-1,8.038284302E-2,9.971214752E0,9.972095575E0
4.842527583E0,-1.113684082E-1,7.559280396E-2,9.965376892E0,9.966285858E0
4.852444583E0,-1.187031555E-1,8.786727905E-2,9.971065063E0,9.972158723E0
4.862361583E0,-1.103205872E-1,8.068222046E-2,9.961035919E0,9.961973541E0
4.872278583E0,-1.182540894E-1,7.708969116E-2,9.959838409E0,9.960838719E0
4.882195583E0,-1.175056458E-1,8.008346558E-2,9.962682495E0,9.963697277E0
4.892112583E0,-1.142124939E-1,8.577163696E-2,9.965975647E0,9.966999140E0
4.902029583E0,-1.073268127E-1,9.086105347E-2,9.974956970E0,9.975948142E0
4.911946583E0,-1.136137390E-1,8.217910767E-2,9.959838409E0,9.960825399E0
4.921863583E0,-1.187031555E-1,7.933502197E-2,9.959688721E0,9.960712018E0
4.931780583E0,-1.185534668E-1,7.918533325E-2,9.959688721E0,9.960709044E0
4.941697583E0,-1.139131165E-1,8.352630615E-2,9.961035919E0,9.962037413E0
4.951614583E0,-1.101708984E-1,8.666976929E-2,9.963430939E0,9.964416960E0
4.961531583E0,-1.113684082E-1,8.846603394E-2,9.976154480E0,9.977168304E0
4.971448583E0,-1.106199646E-1,8.487350464E-2,9.972112885E0,9.973087570E0
4.981365583E0,-1.086740112E-1,8.457412720E-2,9.961185608E0,9.962137398E0
4.991282583E0,-1.133143616E-1,8.173004150E-2,9.965676270E0,9.966655580E0
5.001199583E0,-1.124162292E-1,8.592132568E-2,9.961185608E0,9.962190452E0
5.011116583E0,-1.154100037E-1,8.726852417E-2,9.961335297E0,9.962386067E0
5.021033583E0,-1.182540894E-1,8.158035278E-2,9.957742767E0,9.958779062E0
5.030950583E0,-1.199006653E-1,9.145980835E-2,9.960437164E0,9.961578669E0
5.040867583E0,-1.155596924E-1,8.891510010E-2,9.958940277E0,9.960007599E0
5.050784583E0,-1.100212097E-1,8.053253174E-2,9.955347748E0,9.956281381E0
5.060701583E0,-1.038839722E-1,7.574249268E-2,9.964179382E0,9.965008759E0
5.070618583E0,-1.145118713E-1,7.753875732E-2,9.966873779E0,9.967833173E0
5.080535583E0,-1.103205872E-1,7.469467163E-2,9.965526581E0,9.966417107E0
5.090452583E0,-1.154100037E-1,7.948471069E-2,9.955198059E0,9.956184293E0
5.100369417E0,-1.130149841E-1,8.457412720E-2,9.965825958E0,9.966825583E0
5.110286417E0,-1.089733887E-1,8.502319336E-2,9.953551483E0,9.954511102E0
5.120203417E0,-1.136137390E-1,7.873626709E-2,9.959089966E0,9.960049218E0
5.130119417E0,-1.194515991E-1,7.843688965E-2,9.966724091E0,9.967748498E0
5.140036417E0,-1.196012878E-1,8.547225952E-2,9.966873779E0,9.967957810E0
5.149953417E0,-1.074765015E-1,8.412506104E-2,9.967023468E0,9.967957917E0
5.159870417E0,-1.076261902E-1,8.726852417E-2,9.969418488E0,9.970381345E0
5.169787417E0,-1.112187195E-1,8.232879639E-2,9.959838409E0,9.960799605E0
5.179704417E0,-1.243913269E-1,7.978408813E-2,9.963580627E0,9.964676494E0
5.189621417E0,-1.149609375E-1,8.906478882E-2,9.960736542E0,9.961798081E0
5.199538417E0,-1.091230774E-1,8.202941895E-2,9.955198059E0,9.956134042E0
5.209455417E0,-1.113684082E-1,7.379653931E-2,9.963430939E0,9.964326617E0
5.219372417E0,-1.130149841E-1,8.367599487E-2,9.964927826E0,9.965919959E0
5.229289417E0,-1.128652954E-1,8.232879639E-2,9.959089966E0,9.960069756E0
5.239206417E0,-1.142124939E-1,8.322692871E-2,9.969268799E0,9.970270387E0
5.249123417E0,-1.194515991E-1,7.948471069E-2,9.967472534E0,9.968505165E0
5.259040417E0,-1.149609375E-1,8.202941895E-2,9.964329071E0,9.965329833E0
5.268957417E0,-1.160087585E-1,7.768844604E-2,9.970765686E0,9.971743172E0
5.278874417E0,-1.179547119E-1,7.933502197E-2,9.962682495E0,9.963696596E0
5.288791417E0,-1.077758789E-1,9.445358276E-2,9.967622223E0,9.968652361E0
5.298708417E0,-1.104702759E-1,8.113128662E-2,9.961035919E0,9.961978847E0
5.308625417E0,-1.026864624E-1,8.816665649E-2,9.973609772E0,9.974528046E0
5.318542417E0,-1.101708984E-1,8.666976929E-2,9.970017242E0,9.971002612E0
5.328459417E0,-1.142124939E-1,8.681945801E-2,9.966275024E0,9.967307559E0
5.338376417E0,-1.127156067E-1,8.382568359E-2,9.959688721E0,9.960679242E0
5.348293417E0,-1.164578247E-1,8.098159790E-2,9.957144012E0,9.958154313E0
5.358210417E0,-1.199006653E-1,8.232879639E-2,9.960437164E0,9.961499019E0
5.368127417E0,-1.061293030E-1,9.295669556E-2,9.969119110E0,9.970117362E0
5.378044417E0,-1.110690308E-1,9.325607300E-2,9.966574402E0,9.967629524E0
5.387961417E0,-1.178050232E-1,7.858657837E-2,9.963880005E0,9.964886283E0
5.397878417E0,-1.073268127E-1,8.292755127E-2,9.962981873E0,9.963905049E0
5.407795417E0,-1.089733887E-1,8.816665649E-2,9.964628448E0,9.965614315E0
5.417712417E0,-1.070274353E-1,8.547225952E-2,9.961484985E0,9.962426587E0
5.427629417E0,-1.187031555E-1,8.277786255E-2,9.955946503E0,9.956998211E0
5.437546417E0,-1.193019104E-1,8.217910767E-2,9.960736542E0,9.961789940E0
5.447463417E0,-1.103205872E-1,8.232879639E-2,9.957892456E0,9.958843850E0
5.457380417E0,-1.152603149E-1,8.996292114E-2,9.961934052E0,9.963006992E0
5.467297417E0,-1.112187195E-1,8.277786255E-2,9.972861328E0,9.973824986E0
5.477214417E0,-1.179547119E-1,7.873626709E-2,9.964778137E0,9.965787276E0
5.487131417E0,-1.080752563E-1,7.738906860E-2,9.961185608E0,9.962072477E0
5.497048417E0,-1.044827271E-1,8.637039185E-2,9.969717865E0,9.970639437E0
5.506965417E0,-1.115180969E-1,8.547225952E-2,9.965975647E0,9.966966057E0
5.516882417E0,-1.124162292E-1,8.412506104E-2,9.976304169E0,9.977292183E0
5.526799417E0,-1.127156067E-1,7.379653931E-2,9.960886230E0,9.961797289E0
5.536716417E0,-1.170565796E-1,7.649093628E-2,9.967921600E0,9.968902354E0
5.546633417E0,-1.163081360E-1,7.948471069E-2,9.972561951E0,9.973556901E0
5.556550417E0,-1.116677856E-1,8.532257080E-2,9.963131561E0,9.964122648E0
5.566467417E0,-1.133143616E-1,8.966354370E-2,9.961484985E0,9.962532951E0
5.576383417E0,-1.137634277E-1,8.038284302E-2,9.966424713E0,9.967398110E0
5.586300417E0,-1.067280579E-1,8.173004150E-2,9.967622223E0,9.968528651E0
5.596217417E0,-1.127156067E-1,8.996292114E-2,9.970316620E0,9.971359568E0
5.606134417E0,-1.160087585E-1,8.202941895E-2,9.978699188E0,9.979710634E0
5.616051417E0,-1.125659180E-1,7.993377686E-2,9.969568176E0,9.970524064E0
5.625968417E0,-1.127156067E-1,7.574249268E-2,9.966724091E0,9.967649213E0
5.635885417E0,-1.109193420E-1,8.277786255E-2,9.971065063E0,9.972025560E0
5.645802417E0,-1.116677856E-1,8.936416626E-2,9.968670044E0,9.969695988E0
5.655719417E0,-1.131646729E-1,8.382568359E-2,9.971663818E0,9.972658236E0
5.665636417E0,-1.164578247E-1,8.217910767E-2,9.966424713E0,9.967443875E0
5.675553417E0,-1.158590698E-1,9.041198730E-2,9.959239655E0,9.960323898E0
5.685470417E0,-1.104702759E-1,8.457412720E-2,9.967173157E0,9.968144120E0
5.695387417E0,-1.193019104E-1,8.816665649E-2,9.959389343E0,9.960494084E0
5.705304417E0,-1.079255676E-1,9.011260986E-2,9.971214752E0,9.972205967E0
5.715221417E0,-1.112187195E-1,7.753875732E-2,9.969268799E0,9.970190683E0
5.725138417E0,-1.131646729E-1,7.918533325E-2,9.960586853E0,9.961544409E0
5.735055417E0,-1.197509766E-1,8.427474976E-2,9.956245880E0,9.957322660E0
5.744972417E0,-1.140628052E-1,8.861572266E-2,9.967921600E0,9.968968056E0
5.754889417E0,-1.154100037E-1,8.352630615E-2,9.964927826E0,9.965946151E0
5.764806417E0,-1.104702759E-1,8.143066406E-2,9.970915375E0,9.971859809E0
5.774723417E0,-1.100212097E-1,8.681945801E-2,9.967771912E0,9.968757153E0
5.784640417E0,-1.118174744E-1,8.801696777E-2,9.973160706E0,9.974175885E0
5.794557417E0,-1.125659180E-1,8.068222046E-2,9.971364441E0,9.972326184E0
5.804474417E0,-1.161584473E-1,8.592132568E-2,9.973609772E0,9.974656242E0
5.814391417E0,-1.173559570E-1,8.487350464E-2,9.957742767E0,9.958795959E0
5.824308417E0,-1.131646729E-1,8.876541138E-2,9.976753235E0,9.977789868E0
5.834225417E0,-1.110690308E-1,7.768844604E-2,9.969268799E0,9.970190179E0
5.844142417E0,-1.110690308E-1,7.664062500E-2,9.966125336E0,9.967038894E0
5.854059417E0,-1.145118713E-1,8.771759033E-2,9.960886230E0,9.961930628E0
5.863976417E0,-1.202000427E-1,8.622070312E-2,9.964478760E0,9.965576703E0
5.873893417E0,-1.237925720E-1,7.783813477E-2,9.955647125E0,9.956720999E0
5.883810417E0,-1.152603149E-1,7.634124756E-2,9.969717865E0,9.970676368E0
5.893727417E0,-1.101708984E-1,7.723937988E-2,9.963880005E0,9.964788422E0
5.903644417E0,-1.139131165E-1,6.960525513E-2,9.965825958E0,9.966720028E0
5.913561417E0,-1.110690308E-1,7.664062500E-2,9.965227203E0,9.966140844E0
5.923478417E0,-1.204994202E-1,8.996292114E-2,9.968819733E0,9.969953877E0
5.933395417E0,-1.242416382E-1,8.517288208E-2,9.968370667E0,9.969508722E0
5.943312417E0,-1.164578247E-1,9.175918579E-2,9.968220978E0,9.969323529E0
5.953229417E0,-1.130149841E-1,8.517288208E-2,9.978100433E0,9.979103921E0
5.963146417E0,-1.166075134E-1,8.053253174E-2,9.965376892E0,9.966384470E0
5.973063417E0,-1.109193420E-1,8.816665649E-2,9.961634674E0,9.962642312E0
5.982980417E0,-1.085243225E-1,8.741821289E-2,9.972561951E0,9.973535548E0
5.992897417E0,-1.128652954E-1,8.053253174E-2,9.969717865E0,9.970681941E0
6.002814417E0,-1.152603149E-1,8.861572266E-2,9.969867554E0,9.970927576E0
6.012731417E0,-1.230441284E-1,8.053253174E-2,9.969867554E0,9.970952030E0
6.022648417E0,-1.181044006E-1,7.798782349E-2,9.955946503E0,9.956952421E0
6.032565417E0,-1.148112488E-1,8.352630615E-2,9.959688721E0,9.960700662E0
6.042482417E0,-1.197509766E-1,7.873626709E-2,9.963430939E0,9.964461640E0
6.052399417E0,-1.134640503E-1,8.637039185E-2,9.967921600E0,9.968941517E0
6.062316417E0,-1.052311707E-1,8.756790161E-2,9.964927826E0,9.965868167E0
6.072233417E0,-1.080752563E-1,8.786727905E-2,9.969268799E0,9.970241788E0
6.082150417E0,-1.128652954E-1,7.619155884E-2,9.968220978E0,9.969151077E0
6.092067417E0,-1.179547119E-1,8.158035278E-2,9.969268799E0,9.970300349E0
6.101984458E0,-1.203497314E-1,8.891510010E-2,9.967472534E0,9.968595622E0
6.111901458E0,-1.137634277E-1,8.562194824E-2,9.962383118E0,9.963400555E0
6.121818458E0,-1.110690308E-1,7.738906860E-2,9.965975647E0,9.966895003E0
6.131735458E0,-1.188528442E-1,7.499404907E-2,9.966424713E0,9.967415496E0
6.141651458E0,-1.133143616E-1,8.741821289E-2,9.959988098E0,9.961016264E0
6.151568458E0,-1.109193420E-1,8.786727905E-2,9.976154480E0,9.977158011E0
6.161485458E0,-1.094224548E-1,8.262817383E-2,9.963580627E0,9.964524053E0
6.171402458E0,-1.143621826E-1,8.337661743E-2,9.961185608E0,9.962190978E0
6.181319458E0,-1.225950623E-1,8.113128662E-2,9.972711639E0,9.973795129E0
6.191236458E0,-1.178050232E-1,9.160949707E-2,9.965077515E0,9.966194870E0
6.201153458E0,-1.157093811E-1,7.918533325E-2,9.968670044E0,9.969656033E0
6.211070458E0,-1.074765015E-1,8.247848511E-2,9.962083740E0,9.963004885E0
6.220987458E0,-1.193019104E-1,9.175918579E-2,9.955946503E0,9.957084084E0
6.230904458E0,-1.088237000E-1,8.202941895E-2,9.964778137E0,9.965709947E0
6.240821458E0,-1.164578247E-1,7.903564453E-2,9.973759460E0,9.974752470E0
6.250738458E0,-1.128652954E-1,8.936416626E-2,9.963580627E0,9.964620587E0
6.260655458E0,-1.172062683E-1,8.128097534E-2,9.973759460E0,9.974779280E0
6.270572458E0,-1.094224548E-1,8.741821289E-2,9.957443390E0,9.958428294E0
6.280489458E0,-1.176553345E-1,8.143066406E-2,9.961934052E0,9.962961597E0
6.290406458E0,-1.228944397E-1,8.367599487E-2,9.960886230E0,9.961995744E0
6.300323458E0,-1.136137390E-1,8.442443848E-2,9.967622223E0,9.968627205E0
6.310240458E0,-1.113684082E-1,8.592132568E-2,9.974956970E0,9.975948674E0
6.320157458E0,-1.104702759E-1,8.397537231E-2,9.973310394E0,9.974275701E0
6.330074458E0,-1.187031555E-1,7.484436035E-2,9.976154480E0,9.977141390E0
6.339991458E0,-1.130149841E-1,8.547225952E-2,9.959539032E0,9.960546954E0
6.349908458E0,-1.187031555E-1,8.367599487E-2,9.964628448E0,9.965686741E0
6.359825458E0,-1.200503540E-1,8.352630615E-2,9.959988098E0,9.961061773E0
6.369742458E0,-1.251397705E-1,7.948471069E-2,9.961634674E0,9.962737734E0
6.379659458E0,-1.124162292E-1,9.041198730E-2,9.959988098E0,9.961032810E0
6.389576458E0,-1.113684082E-1,8.427474976E-2,9.978699188E0,9.979676480E0
6.399493458E0,-1.184037781E-1,8.532257080E-2,9.958341522E0,9.959410890E0
6.409410458E0,-1.148112488E-1,9.325607300E-2,9.967622223E0,9.968719632E0
6.419327458E0,-1.142124939E-1,7.888595581E-2,9.959089966E0,9.960057251E0
6.429244458E0,-1.176553345E-1,8.352630615E-2,9.974507904E0,9.975551481E0
6.439161458E0,-1.155596924E-1,8.292755127E-2,9.968370667E0,9.969385376E0
6.449078458E0,-1.154100037E-1,8.607101440E-2,9.972412262E0,9.973451459E0
6.458995458E0,-1.122665405E-1,8.547225952E-2,9.947713623E0,9.948714269E0
6.468912458E0,-1.104702759E-1,8.382568359E-2,9.953850861E0,9.954816793E0
6.478829458E0,-1.146615601E-1,7.948471069E-2,9.965227203E0,9.966203806E0
6.488746458E0,-1.118174744E-1,8.532257080E-2,9.973759460E0,9.974751168E0
6.498663458E0,-1.148112488E-1,8.292755127E-2,9.970017242E0,9.971023138E0
6.508580458E0,-1.191522217E-1,8.457412720E-2,9.964329071E0,9.965400337E0
6.518497458E0,-1.242416382E-1,8.113128662E-2,9.952653351E0,9.953759440E0
6.528414458E0,-1.163081360E-1,9.145980835E-2,9.966125336E0,9.967223620E0
6.538331458E0,-1.178050232E-1,8.053253174E-2,9.972112885E0,9.973133855E0
6.548248458E0,-1.184037781E-1,8.098159790E-2,9.967322845E0,9.968355039E0
6.558165458E0,-1.107696533E-1,8.457412720E-2,9.970166931E0,9.971140924E0
6.568082458E0,-1.169068909E-1,8.173004150E-2,9.961484985E0,9.962506218E0
6.577999458E0,-1.100212097E-1,8.816665649E-2,9.957593079E0,9.958591163E0
6.587916458E0,-1.166075134E-1,7.484436035E-2,9.960287476E0,9.961251206E0
6.597833458E0,-1.249900818E-1,8.008346558E-2,9.963430939E0,9.964536715E0
6.607750458E0,-1.167572021E-1,7.649093628E-2,9.967173157E0,9.968150473E0
6.617667458E0,-1.209484863E-1,8.068222046E-2,9.962682495E0,9.963743305E0
6.627584458E0,-1.134640503E-1,8.397537231E-2,9.955198059E0,9.956198790E0
6.637501458E0,-1.079255676E-1,8.622070312E-2,9.966125336E0,9.967082630E0
6.647418458E0,-1.185534668E-1,8.053253174E-2,9.963880005E0,9.964910695E0
6.657335458E0,-1.166075134E-1,8.068222046E-2,9.963580627E0,9.964589598E0
6.667252458E0,-1.154100037E-1,8.038284302E-2,9.968370667E0,9.969362799E0
6.677169458E0,-1.127156067E-1,7.768844604E-2,9.963131561E0,9.964071999E0
6.687086458E0,-1.187031555E-1,8.307723999E-2,9.963580627E0,9.964634022E0
6.697003458E0,-1.149609375E-1,8.217910767E-2,9.964628448E0,9.965630414E0
6.706920458E0,-1.122665405E-1,8.532257080E-2,9.962233429E0,9.963231334E0
6.716837458E0,-1.098715210E-1,9.430389404E-2,9.972412262E0,9.973463355E0
6.726754458E0,-1.133143616E-1,8.397537231E-2,9.966125336E0,9.967123267E0
6.736671458E0,-1.148112488E-1,7.544311523E-2,9.962682495E0,9.963629649E0
6.746588458E0,-1.169068909E-1,8.187973022E-2,9.959539032E0,9.960561693E0
6.756505458E0,-1.080752563E-1,8.068222046E-2,9.956994324E0,9.957907704E0
6.766422458E0,-1.169068909E-1,8.816665649E-2,9.977950745E0,9.979025085E0
6.776339458E0,-1.148112488E-1,9.355545044E-2,9.967173157E0,9.968273420E0
6.786256458E0,-1.110690308E-1,8.741821289E-2,9.960586853E0,9.961589669E0
6.796173458E0,-1.068777466E-1,8.442443848E-2,9.970466309E0,9.971396530E0
6.806090458E0,-1.088237000E-1,8.846603394E-2,9.964329071E0,9.965315985E0
6.816007458E0,-1.058299255E-1,8.711883545E-2,9.963580627E0,9.964523500E0
6.825924458E0,-1.146615601E-1,8.292755127E-2,9.969867554E0,9.970871742E0
6.835841458E0,-1.184037781E-1,8.412506104E-2,9.967322845E0,9.968381071E0
6.845758458E0,-1.122665405E-1,8.457412720E-2,9.964778137E0,9.965769407E0
6.855675458E0,-1.176553345E-1,8.038284302E-2,9.962981873E0,9.964000801E0
6.865592458E0,-1.158590698E-1,8.307723999E-2,9.957892456E0,9.958912959E0
6.875509458E0,-1.103205872E-1,8.322692871E-2,9.972561951E0,9.973519400E0
6.885426458E0,-1.020877075E-1,8.083190918E-2,9.979747009E0,9.980596479E0
6.895343458E0,-9.909393311E-2,8.741821289E-2,9.967921600E0,9.968797449E0
6.905260458E0,-1.169068909E-1,8.726852417E-2,9.966125336E0,9.967193046E0
6.915176458E0,-1.094224548E-1,7.903564453E-2,9.965825958E0,9.966740036E0
6.925093458E0,-1.127156067E-1,7.978408813E-2,9.967472534E0,9.968429115E0
6.935010458E0,-1.181044006E-1,8.502319336E-2,9.961185608E0,9.962248557E0
6.944927458E0,-1.196012878E-1,8.637039185E-2,9.961634674E0,9.962727021E0
6.954844458E0,-1.088237000E-1,8.771759033E-2,9.960886230E0,9.961866867E0
6.964761458E0,-1.163081360E-1,8.412506104E-2,9.964478760E0,9.965512609E0
6.974678458E0,-1.136137390E-1,8.187973022E-2,9.958940277E0,9.959924890E0
6.984595458E0,-1.113684082E-1,9.235794067E-2,9.962532806E0,9.963583333E0
6.994512458E0,-1.040336609E-1,8.187973022E-2,9.962233429E0,9.963113077E0
7.004429458E0,-1.142124939E-1,8.547225952E-2,9.959389343E0,9.960410940E0
7.014346458E0,-1.285826111E-1,7.484436035E-2,9.967322845E0,9.968433170E0
7.024263458E0,-1.176553345E-1,7.679031372E-2,9.966574402E0,9.967564639E0
7.034180458E0,-1.082249451E-1,8.607101440E-2,9.955048370E0,9.956008684E0
7.044097458E0,-1.109193420E-1,8.532257080E-2,9.967173157E0,9.968155485E0
7.054014458E0,-1.074765015E-1,8.652008057E-2,9.969119110E0,9.970073859E0
7.063931458E0,-1.094224548E-1,8.487350464E-2,9.972861328E0,9.973822730E0
7.073848458E0,-1.155596924E-1,7.454498291E-2,9.964029694E0,9.964978612E0
7.083765458E0,-1.215472412E-1,8.936416626E-2,9.971065063E0,9.972206285E0
7.093682458E0,-1.263372803E-1,8.158035278E-2,9.970017242E0,9.971151402E0
7.103599542E0,-1.121168518E-1,8.038284302E-2,9.966424713E0,9.967379453E0
7.113516542E0,-1.088237000E-1,7.753875732E-2,9.956844635E0,9.957741207E0
7.123433542E0,-1.137634277E-1,7.963439941E-2,9.975106659E0,9.976073206E0
7.133350542E0,-1.086740112E-1,8.457412720E-2,9.970017242E0,9.970968190E0
7.143267542E0,-1.133143616E-1,7.873626709E-2,9.963580627E0,9.964536039E0
7.153184542E0,-1.191522217E-1,7.409591675E-2,9.965676270E0,9.966663984E0
7.163101542E0,-1.163081360E-1,8.202941895E-2,9.956545258E0,9.957562446E0
7.173018542E0,-1.197509766E-1,8.292755127E-2,9.963281250E0,9.964345967E0
7.182935542E0,-1.097218323E-1,8.562194824E-2,9.965676270E0,9.966648058E0
7.192852542E0,-1.101708984E-1,8.487350464E-2,9.968670044E0,9.969640093E0
7.202769542E0,-1.170565796E-1,8.008346558E-2,9.968819733E0,9.969828608E0
7.212686542E0,-1.207987976E-1,8.053253174E-2,9.958790588E0,9.959848785E0
7.222603542E0,-1.145118713E-1,8.592132568E-2,9.958042145E0,9.959071182E0
7.232520542E0,-1.191522217E-1,7.903564453E-2,9.965077515E0,9.966103238E0
7.242437542E0,-1.085243225E-1,8.457412720E-2,9.955647125E0,9.956597812E0
7.252354542E0,-1.076261902E-1,9.011260986E-2,9.962981873E0,9.963970668E0
7.262271542E0,-1.125659180E-1,8.622070312E-2,9.961185608E0,9.962194729E0
7.272188542E0,-1.260379028E-1,8.337661743E-2,9.964778137E0,9.965923968E0
7.282105542E0,-1.193019104E-1,8.607101440E-2,9.965825958E0,9.966911668E0
7.292022542E0,-1.100212097E-1,8.008346558E-2,9.965975647E0,9.966904666E0
7.301939542E0,-1.140628052E-1,8.592132568E-2,9.962832184E0,9.963855575E0
7.311856542E0,-1.140628052E-1,8.502319336E-2,9.964179382E0,9.965194932E0
7.321773542E0,-1.158590698E-1,8.577163696E-2,9.973759460E0,9.974801145E0
7.331690542E0,-1.130149841E-1,8.023315430E-2,9.966873779E0,9.967837412E0
7.341607542E0,-1.261875916E-1,7.753875732E-2,9.966275024E0,9.967375453E0
7.351524542E0,-1.230441284E-1,8.427474976E-2,9.960886230E0,9.962002639E0
7.361441542E0,-1.146615601E-1,9.370513916E-2,9.960437164E0,9.961537855E0
7.371358542E0,-1.131646729E-1,8.951385498E-2,9.966724091E0,9.967768460E0
7.381275542E0,-1.104702759E-1,7.574249268E-2,9.973609772E0,9.974509135E0
7.391192542E0,-1.082249451E-1,8.427474976E-2,9.976004791E0,9.976947753E0
7.401109542E0,-1.134640503E-1,8.472381592E-2,9.965376892E0,9.966382936E0
7.411026542E0,-1.170565796E-1,8.187973022E-2,9.958491211E0,9.959515738E0
7.420943542E0,-1.210981750E-1,8.831634521E-2,9.959688721E0,9.960816430E0
7.430860542E0,-1.166075134E-1,7.783813477E-2,9.967023468E0,9.968009475E0
7.440777542E0,-1.095721436E-1,8.128097534E-2,9.954449615E0,9.955384463E0
7.450694542E0,-1.101708984E-1,7.993377686E-2,9.963281250E0,9.964210972E0
7.460611542E0,-1.068777466E-1,8.696914673E-2,9.967023468E0,9.967975888E0
7.470528542E0,-1.056802368E-1,7.843688965E-2,9.966125336E0,9.966994274E0
7.480445542E0,-1.079255676E-1,8.038284302E-2,9.959539032E0,9.960448135E0
7.490362542E0,-1.167572021E-1,8.158035278E-2,9.971514130E0,9.972531355E0
7.500279542E0,-1.128652954E-1,8.592132568E-2,9.971514130E0,9.972523005E0
7.510196542E0,-1.143621826E-1,8.741821289E-2,9.960437164E0,9.961477258E0
7.520113542E0,-1.222956848E-1,8.008346558E-2,9.971214752E0,9.972286259E0
7.530030542E0,-1.151106262E-1,7.888595581E-2,9.957593079E0,9.958570850E0
7.539947542E0,-1.218466187E-1,7.679031372E-2,9.954150238E0,9.955192128E0
7.549864542E0,-1.127156067E-1,8.921447754E-2,9.961335297E0,9.962372455E0
7.559781542E0,-1.106199646E-1,9.101074219E-2,9.967622223E0,9.968651489E0
7.569698542E0,-9.669891357E-2,7.469467163E-2,9.956694946E0,9.957444664E0
7.579615542E0,-1.086740112E-1,7.664062500E-2,9.957293701E0,9.958181645E0
7.589532542E0,-1.209484863E-1,8.068222046E-2,9.962083740E0,9.963144614E0
7.599449542E0,-1.196012878E-1,8.202941895E-2,9.964478760E0,9.965534118E0
7.609366542E0,-1.212478638E-1,8.547225952E-2,9.959089966E0,9.960194752E0
7.619283542E0,-1.115180969E-1,8.277786255E-2,9.960287476E0,9.961255697E0
7.629200542E0,-1.128652954E-1,8.397537231E-2,9.965825958E0,9.966818824E0
7.639117542E0,-1.062789917E-1,8.562194824E-2,9.970466309E0,9.971400341E0
7.649034542E0,-1.131646729E-1,8.262817383E-2,9.977801056E0,9.978784874E0
7.658951542E0,-1.224453735E-1,8.038284302E-2,9.967921600E0,9.968997708E0
7.668868542E0,-1.227447510E-1,8.113128662E-2,9.964628448E0,9.965714660E0
7.678785542E0,-1.113684082E-1,7.514373779E-2,9.973011017E0,9.973915893E0
7.688702542E0,-1.005908203E-1,8.771759033E-2,9.974208527E0,9.975101434E0
7.698619542E0,-1.064286804E-1,9.355545044E-2,9.970017242E0,9.971024195E0
7.708536542E0,-1.158590698E-1,8.981323242E-2,9.959688721E0,9.960767498E0
7.718453542E0,-1.061293030E-1,7.843688965E-2,9.960137787E0,9.961012022E0
7.728370542E0,-1.071771240E-1,7.424560547E-2,9.971214752E0,9.972067137E0
7.738287542E0,-1.073268127E-1,8.277786255E-2,9.974058838E0,9.974979745E0
7.748204542E0,-1.055305481E-1,8.876541138E-2,9.965376892E0,9.966330950E0
7.758121542E0,-1.044827271E-1,7.903564453E-2,9.961784363E0,9.962645781E0
7.768038542E0,-1.134640503E-1,8.158035278E-2,9.961035919E0,9.962016163E0
7.777955542E0,-1.204994202E-1,8.038284302E-2,9.957443390E0,9.958496893E0
7.787872542E0,-1.231938171E-1,8.113128662E-2,9.958940277E0,9.960032653E0
7.797789542E0,-1.154100037E-1,8.622070312E-2,9.966125336E0,9.967166482E0
7.807706542E0,-1.073268127E-1,8.187973022E-2,9.971663818E0,9.972577532E0
7.817623542E0,-1.092727661E-1,7.858657837E-2,9.966873779E0,9.967782568E0
7.827540542E0,-1.188528442E-1,8.173004150E-2,9.959539032E0,9.960583493E0
7.837457542E0,-1.200503540E-1,8.921447754E-2,9.956694946E0,9.957818313E0
7.847374542E0,-1.188528442E-1,8.472381592E-2,9.965975647E0,9.967044433E0
7.857291542E0,-1.139131165E-1,8.008346558E-2,9.954150238E0,9.955124134E0
7.867208542E0,-1.079255676E-1,8.367599487E-2,9.974956970E0,9.975891748E0
7.877125542E0,-1.073268127E-1,9.011260986E-2,9.970466309E0,9.971451135E0
7.887042542E0,-1.095721436E-1,8.023315430E-2,9.962233429E0,9.963159053E0
7.896959542E0,-1.164578247E-1,8.562194824E-2,9.962832184E0,9.963880703E0
7.906876542E0,-1.284329224E-1,7.918533325E-2,9.963131561E0,9.964273975E0
7.916793542E0,-1.227447510E-1,8.352630615E-2,9.966275024E0,9.967380839E0
7.926710542E0,-1.143621826E-1,9.101074219E-2,9.962832184E0,9.963904194E0
7.936627542E0,-1.137634277E-1,8.367599487E-2,9.960886230E0,9.961887285E0
7.946544542E0,-1.128652954E-1,7.993377686E-2,9.958640900E0,9.959601225E0
7.956461542E0,-1.143621826E-1,8.053253174E-2,9.961634674E0,9.962616603E0
7.966378542E0,-1.167572021E-1,8.801696777E-2,9.942324829E0,9.943399934E0
7.976295542E0,-2.160008240E-1,1.330732727E-1,9.964179382E0,9.967408671E0
7.986212542E0,-7.295828247E-1,3.746708679E-1,9.930499420E0,9.964310718E0
7.996129542E0,-6.969506836E-1,3.121009827E-1,1.007045837E1,1.009937023E1
8.006046542E0,-7.884104919E-1,1.652563477E-1,9.812844086E0,9.845852417E0
8.015963542E0,-2.968327332E-1,-4.011657715E-2,1.004710693E1,1.005157086E1
8.025880542E0,1.013242950E0,-4.167333984E-1,9.947114868E0,1.000726847E1
8.035797542E0,7.641609192E-1,-8.831634521E-2,9.964329071E0,9.993977963E0
8.045714542E0,4.236190796E-2,2.398013306E-1,9.990674286E0,9.993641573E0
8.055631542E0,-1.453477478E-1,7.439529419E-2,9.965077515E0,9.966415128E0
8.065548542E0,-1.049317932E-1,7.963439941E-2,9.961484985E0,9.962355918E0
8.075465542E0,-1.122665405E-1,8.322692871E-2,9.973759460E0,9.974738506E0
8.085382542E0,-1.276844788E-1,9.145980835E-2,9.956545258E0,9.957783975E0
8.095299542E0,-1.585203552E-1,8.158035278E-2,9.983788605E0,9.985380261E0
8.105216042E0,-1.504371643E-1,7.783813477E-2,9.934091949E0,9.935535868E0
8.115133042E0,-2.254312134E-1,7.454498291E-2,9.980794830E0,9.983618664E0
8.125050042E0,-4.561015320E-1,8.038284302E-2,9.943073273E0,9.953853330E0
8.134968042E0,-3.418890381E-1,1.236428833E-1,9.958640900E0,9.965274921E0
8.144884042E0,1.287322998E-2,6.780899048E-2,9.970166931E0,9.970405830E0
8.154801042E0,-3.547622681E-2,5.298980713E-2,9.966275024E0,9.966479034E0
8.164718042E0,-1.811233521E-2,3.053649902E-2,9.996811523E0,9.996874570E0
8.174635042E0,-2.453398132E-1,9.729766846E-2,9.984686737E0,9.988174393E0
8.184552042E0,-2.233355713E-1,5.523513794E-2,9.955198059E0,9.957856099E0
8.194469042E0,-1.880090332E-1,9.879455566E-2,9.939630432E0,9.941899260E0
8.204386042E0,1.526824951E-2,7.229965210E-2,9.977651367E0,9.977924993E0
8.214303042E0,-2.230361938E-2,-2.245330811E-2,9.990225220E0,9.990275349E0
8.224220042E0,-1.080752563E-1,-3.891906738E-3,9.962532806E0,9.963119759E0
8.234137042E0,3.293151855E-2,1.531315613E-1,9.982591095E0,9.983819847E0
8.244054042E0,-1.646575928E-3,9.385482788E-2,9.976304169E0,9.976745777E0
8.253971042E0,-1.924996948E-1,1.137634277E-1,9.980645142E0,9.983149588E0
8.263888042E0,-1.094224548E-1,7.634124756E-2,9.961035919E0,9.961929424E0
8.273805042E0,-8.457412720E-2,5.852828979E-2,9.956545258E0,9.957076469E0
8.283722042E0,-1.151106262E-1,6.152206421E-2,9.971813507E0,9.972667649E0
8.293639042E0,-1.290316772E-1,8.397537231E-2,9.976004791E0,9.977192623E0
8.303556042E0,-1.264869690E-1,1.269360352E-1,9.967921600E0,9.969532223E0
8.313473042E0,-1.444496155E-1,1.761836243E-1,1.003109024E1,1.003367718E1
8.323390042E0,-1.077758789E-1,1.963916016E-1,1.039453445E1,1.039694820E1
8.333307042E0,-7.274871826E-2,1.338217163E-1,1.014500336E1,1.014614674E1
8.343224042E0,-6.930587769E-2,1.204994202E-1,1.001282822E1,1.001379310E1
8.353141042E0,-2.351609802E-1,1.546284485E-1,1.009785141E1,1.010177280E1
8.363058042E0,-2.309696960E-1,1.456471252E-1,1.000699036E1,1.001071506E1
8.372975042E0,-1.094224548E-1,9.954299927E-2,9.816286926E0,9.817401443E0
8.382892042E0,-1.460961914E-1,1.303788757E-1,9.893675995E0,9.895613545E0
8.392809042E0,-2.520758057E-1,2.180964661E-1,9.958640900E0,9.964217824E0
8.402726042E0,-2.134561157E-1,2.059716797E-1,9.946216736E0,9.950638934E0
8.412643042E0,-2.266287231E-1,2.177970886E-1,1.000055374E1,1.000549206E1
8.422560042E0,-2.130070496E-1,2.152523804E-1,9.926457825E0,9.931076001E0
8.432477042E0,-1.543290710E-1,2.010319519E-1,9.904453583E0,9.907695599E0
8.442394042E0,-1.363664246E-1,1.788780212E-1,9.951755219E0,9.954296815E0
8.452311042E0,-9.175918579E-2,1.616638184E-1,9.915829926E0,9.917572185E0
8.462228042E0,-1.528321838E-1,1.869612122E-1,9.956245880E0,9.959173871E0
8.472145042E0,-1.429527283E-1,1.995350647E-1,9.962383118E0,9.965406520E0
8.482062042E0,-6.765930176E-2,1.686991882E-1,9.963880005E0,9.965537715E0
8.491979042E0,-1.945953369E-2,1.529818726E-1,9.922565918E0,9.923764232E0
8.501896042E0,3.592529297E-3,1.492396545E-1,9.892628174E0,9.893754473E0
8.511813042E0,8.562194824E-2,1.157093811E-1,9.856104126E0,9.857155184E0
8.521730042E0,-4.041595459E-3,1.669029236E-1,9.914333038E0,9.915738627E0
8.531647042E0,-7.903564453E-2,1.887574768E-1,9.937385101E0,9.939491872E0
8.541564042E0,-1.086740112E-1,2.082170105E-1,9.952803040E0,9.955573952E0
8.551481042E0,-1.061293030E-1,2.158511353E-1,9.988578644E0,9.991474289E0
8.561398042E0,-1.282832336E-1,2.526745605E-1,9.975256348E0,9.979280546E0
8.571315042E0,-1.014889526E-1,2.242337036E-1,9.958491211E0,9.961532410E0
8.581232042E0,-7.259902954E-2,2.198927307E-1,9.998009033E0,1.000069038E1
8.591149042E0,-9.310638428E-2,2.294728088E-1,9.977801056E0,9.980873733E0
8.601066042E0,-1.122665405E-1,2.154020691E-1,9.943522339E0,9.946488744E0
8.610983042E0,-1.209484863E-1,2.362088013E-1,9.946366425E0,9.949905939E0
8.620900042E0,-1.083746338E-1,2.456391907E-1,9.977950745E0,9.981562239E0
8.630817042E0,-8.307723999E-2,2.263293457E-1,9.970017242E0,9.972931897E0
8.640734042E0,-9.460327148E-2,2.266287231E-1,9.976453857E0,9.979476035E0
8.650651042E0,-1.179547119E-1,2.227368164E-1,9.958940277E0,9.962129112E0
8.660568042E0,-9.759704590E-2,2.239343262E-1,9.972262573E0,9.975254012E0
8.670485042E0,-1.085243225E-1,2.519261169E-1,9.966275024E0,9.970049256E0
8.680402042E0,-1.230441284E-1,2.576142883E-1,9.951455841E0,9.955550127E0
8.690319042E0,-1.056802368E-1,2.424957275E-1,9.970316620E0,9.973825043E0
8.700236042E0,-7.948471069E-2,2.297721863E-1,9.977651367E0,9.980613202E0
8.710153042E0,-9.430389404E-2,2.537223816E-1,9.964927826E0,9.968603455E0
8.720070042E0,-1.463955688E-1,2.643502808E-1,9.944121094E0,9.948711327E0
8.729987042E0,-1.333726501E-1,2.665956116E-1,9.943971405E0,9.948438510E0
8.739904042E0,-5.568420410E-2,2.567161560E-1,9.983638916E0,9.987094168E0
8.749821042E0,-3.876937866E-2,2.480342102E-1,9.965676270E0,9.968837823E0
8.759738042E0,2.544708252E-2,2.176473999E-1,9.996961212E0,9.999362551E0
8.769655042E0,2.665956116E-1,1.980381775E-1,1.007225464E1,1.007772821E1
8.779572042E0,3.228785706E-1,2.490820312E-1,1.018003052E1,1.018819482E1
8.789489042E0,-4.099974060E-1,3.276686096E-1,9.942923584E0,9.956766241E0
8.799406042E0,-7.382647705E-1,3.553610229E-1,9.557624817E0,9.592679942E0
8.809323042E0,-3.625460815E-1,2.417472839E-1,1.002225861E1,1.003172712E1
8.819240042E0,-4.011657715E-1,2.647993469E-1,1.032822235E1,1.033940180E1
8.829157042E0,4.146377563E-2,2.426454163E-1,9.779762878E0,9.782860420E0
8.839074042E0,-3.008743286E-2,2.624043274E-1,9.847871246E0,9.851412557E0
8.848991042E0,-2.228865051E-1,3.577560425E-1,1.004680756E1,1.005564567E1
8.858908042E0,-1.910028076E-1,3.406915283E-1,1.001776794E1,1.002537916E1
8.868825042E0,-1.525328064E-1,3.314108276E-1,9.959239655E0,9.965919621E0
8.878742042E0,-8.337661743E-2,3.216810608E-1,9.879156189E0,9.884743667E0
8.888659042E0,-9.535171509E-2,3.302133179E-1,9.988129578E0,9.994041487E0
8.898576042E0,-1.258882141E-1,2.981799316E-1,1.003722748E1,1.004244465E1
8.908493042E0,7.035369873E-2,2.395019531E-1,9.816885681E0,9.820058824E0
8.918410042E0,-8.831634521E-2,3.132984924E-1,9.948162689E0,9.953486656E0
8.928327042E0,-1.260379028E-1,2.990780640E-1,9.988578644E0,9.993849937E0
8.938244042E0,-8.158035278E-2,3.715274048E-1,9.858798523E0,9.866133806E0
8.948161042E0,-1.372645569E-1,3.875440979E-1,9.993069305E0,1.000152319E1
8.958078042E0,-1.112187195E-1,3.308120728E-1,9.971963196E0,9.978068762E0
8.967995042E0,-3.293151855E-3,2.842588806E-1,9.886640625E0,9.890726809E0
8.977912042E0,-2.350112915E-2,3.144960022E-1,9.930050354E0,9.935057125E0
8.987829042E0,-6.212081909E-2,3.583547974E-1,9.999505920E0,1.000611792E1
8.997746042E0,-1.582209778E-1,3.891906738E-1,1.000190094E1,1.001072054E1
9.007663042E0,-1.216969299E-1,3.649411011E-1,1.001193008E1,1.001931815E1
9.017580042E0,-2.020797729E-2,3.528163147E-1,1.003947281E1,1.004569072E1
9.027497042E0,8.128097534E-2,3.679348755E-1,1.001941452E1,1.002649739E1
9.037414042E0,1.046324158E-1,3.604504395E-1,9.913734283E0,9.920836653E0
9.047331042E0,-3.966751099E-2,3.537144470E-1,9.900711365E0,9.907107194E0
9.057248042E0,-3.113525391E-2,3.149450684E-1,9.957593079E0,9.962621127E0
9.067165042E0,-3.023712158E-2,3.342549133E-1,9.946067047E0,9.951728008E0
9.077082042E0,-4.191284180E-3,3.731739807E-1,1.003632935E1,1.004326556E1
9.086999042E0,-3.083587646E-2,4.044589233E-1,1.003483246E1,1.004302745E1
9.096916042E0,-1.013392639E-1,4.326004028E-1,9.870773621E0,9.880768423E0
9.106833042E0,-1.025367737E-1,4.387376404E-1,9.885592804E0,9.895855172E0
9.116750042E0,-9.804611206E-2,4.707710266E-1,9.888436890E0,9.900122349E0
9.126667042E0,-8.412506104E-2,5.278024292E-1,9.969418488E0,9.983734642E0
9.136584042E0,-1.787283325E-1,4.447251892E-1,9.959239655E0,9.970766210E0
9.146501042E0,-2.871029663E-1,3.474275208E-1,9.964029694E0,9.974217851E0
9.156418042E0,-2.559677124E-1,3.625460815E-1,9.951156464E0,9.961047841E0
9.166335042E0,-1.806742859E-1,3.583547974E-1,9.886640625E0,9.894782676E0
9.176252042E0,-1.387614441E-1,3.598516846E-1,9.808503113E0,9.816082787E0
9.186169042E0,-9.131011963E-2,3.492237854E-1,9.807006226E0,9.813646921E0
9.196086042E0,-1.089733887E-1,3.706292725E-1,9.859846344E0,9.867411575E0
9.206003042E0,-1.591191101E-1,4.174818420E-1,9.906399536E0,9.916469218E0
9.215920042E0,-2.237846375E-1,4.396357727E-1,9.950857086E0,9.963077633E0
9.225837042E0,-1.562750244E-1,4.276606750E-1,9.928104401E0,9.938539758E0
9.235754042E0,-1.639091492E-1,4.243675232E-1,9.960437164E0,9.970820553E0
9.245671042E0,-1.543290710E-1,4.255650330E-1,1.003123993E1,1.004144898E1
9.255588042E0,-1.398092651E-1,4.170327759E-1,1.000205063E1,1.001171712E1
9.265505042E0,-2.710862732E-1,4.540058899E-1,9.960137787E0,9.974164318E0
9.275422042E0,-1.386117554E-1,4.131408691E-1,9.991273041E0,1.000077175E1
9.285339042E0,-1.014889526E-1,4.168830872E-1,1.001582199E1,1.002500781E1
9.295256042E0,-1.740879822E-1,4.278103638E-1,1.008857071E1,1.009913795E1
9.305173042E0,-1.588197327E-1,4.228706360E-1,1.007764343E1,1.008776191E1
9.315090042E0,-1.187031555E-1,4.463717651E-1,1.006656647E1,1.007715727E1
9.325007042E0,-1.348695374E-1,4.523593140E-1,1.004231689E1,1.005340476E1
9.334924042E0,-1.784289551E-1,4.559518433E-1,1.005818390E1,1.007009396E1
9.344841042E0,-7.918533325E-2,4.321513367E-1,1.010713211E1,1.011667656E1
9.354758042E0,1.248403931E-1,3.189866638E-1,1.054751633E1,1.055307719E1
9.364675042E0,2.673440552E-1,3.839515686E-1,9.452543335E0,9.464114705E0
9.374592042E0,-2.944377136E-1,5.468128967E-1,9.595795441E0,9.615871674E0
9.384508042E0,-2.016307068E-1,5.093907166E-1,1.035726196E1,1.037174090E1
9.394425042E0,-3.128494263E-2,4.222718811E-1,1.031624725E1,1.032493340E1
9.404342042E0,1.197509766E-1,4.131408691E-1,9.709259491E0,9.718783130E0
9.414259042E0,-2.466870117E-1,5.896238708E-1,9.385782166E0,9.407519208E0
9.424176042E0,-2.706372070E-1,5.577401733E-1,9.988428955E0,1.000764865E1
9.434093042E0,-1.028361511E-1,4.977149963E-1,9.941426697E0,9.954409086E0
9.444010042E0,-2.125579834E-1,4.637356567E-1,1.012060410E1,1.013345247E1
9.453927042E0,-7.604187012E-2,4.778063965E-1,9.757309570E0,9.769297384E0
9.463844042E0,-4.402345276E-1,5.992039490E-1,9.694589996E0,9.723061607E0
9.473761042E0,-4.767585754E-1,5.346881104E-1,1.037657181E1,1.040127072E1
9.483678042E0,2.559677124E-2,5.138813782E-1,1.014141083E1,1.015445433E1
9.493595042E0,-2.721340942E-1,5.077441406E-1,1.024903702E1,1.026521412E1
9.503512042E0,-1.621128845E-1,2.727328491E-1,1.019245468E1,1.019739164E1
9.513429042E0,1.242416382E-2,6.084846497E-1,9.422455902E0,9.442091037E0
9.523346042E0,-1.817221069E-1,7.702981567E-1,9.727371826E0,9.759515604E0
9.533263042E0,-1.143621826E-1,5.026547241E-1,1.004575974E1,1.005897754E1
9.543180042E0,-4.700225830E-2,2.938389587E-1,1.026325745E1,1.026757050E1
9.553097042E0,-9.819580078E-2,4.897814941E-1,9.673932953E0,9.686821311E0
9.563014042E0,-1.486408997E-1,6.605763245E-1,9.768536224E0,9.791974018E0
9.572931042E0,-1.719923401E-1,1.510359192E-1,1.039408539E1,1.039660542E1
9.582848042E0,-6.556365967E-2,1.215472412E-1,1.003797592E1,1.003892589E1
9.592765042E0,-1.911524963E-1,5.771997070E-1,9.708361359E0,9.727382950E0
9.602682042E0,-3.382965088E-1,4.646337891E-1,9.758956146E0,9.775865903E0
9.612599042E0,-2.600093079E-1,6.170169067E-1,9.689949646E0,9.713055073E0
9.622516042E0,-1.821711731E-1,5.451663208E-1,1.015787659E1,1.017412647E1
9.632433042E0,-2.285746765E-1,5.532495117E-1,1.037208115E1,1.038934063E1
9.642350042E0,-5.448669434E-2,5.921685791E-1,1.038555313E1,1.040256441E1
9.652267042E0,8.666976929E-2,7.818241882E-1,1.039603134E1,1.042574834E1
9.662184042E0,1.332229614E-1,1.004710693E0,1.020353165E1,1.025374322E1
9.672101042E0,2.409988403E-2,8.517288208E-1,1.026445496E1,1.029976011E1
9.682018042E0,6.945556641E-2,9.216334534E-1,1.028092072E1,1.032238166E1
9.691935042E0,6.661148071E-2,1.094374237E0,1.025786865E1,1.031629591E1
9.701852042E0,1.216969299E-1,9.868977356E-1,1.028316605E1,1.033113165E1
9.711769042E0,5.673202515E-2,8.795709229E-1,1.025322830E1,1.029104242E1
9.721686042E0,-8.906478882E-2,8.053253174E-1,1.025846741E1,1.029041471E1
9.731603042E0,-8.547225952E-2,8.653504944E-1,1.005548950E1,1.009301769E1
9.741520042E0,-1.481918335E-2,8.954379272E-1,9.762698364E0,9.803688492E0
9.751437042E0,-1.547781372E-1,9.463320923E-1,9.681118011E0,9.728491489E0
9.761354042E0,-2.261796570E-1,9.852511597E-1,9.611063690E0,9.664078970E0
9.771271042E0,-2.091151428E-1,9.973759460E-1,9.525741119E0,9.580095605E0
9.781188042E0,-2.004331970E-1,1.027762756E0,9.460626526E0,9.518399236E0
9.791105042E0,-1.660047913E-1,1.061592407E0,9.489516449E0,9.550154892E0
9.801022042E0,-2.026785278E-1,1.094224548E0,9.535919952E0,9.600634109E0
9.810939042E0,-2.353106689E-1,1.124162292E0,9.597891083E0,9.666365667E0
9.820856042E0,-1.207987976E-1,1.104553070E0,9.803713074E0,9.866479609E0
9.830773042E0,-1.300794983E-1,1.107995911E0,1.010309052E1,1.016449770E1
9.840690042E0,1.092727661E-2,1.106948090E0,1.028945297E1,1.034883066E1
9.850607042E0,4.954696655E-2,1.123862915E0,1.018661682E1,1.024854551E1
9.860524042E0,-5.568420410E-2,1.180145874E0,1.013736923E1,1.020598354E1
9.870441042E0,-1.613644409E-1,1.235680389E0,1.030651749E1,1.038158211E1
9.880358042E0,-8.008346558E-2,1.234632568E0,1.040171951E1,1.047504175E1
9.890275042E0,-4.490661621E-2,1.266965332E0,1.034004776E1,1.041747596E1
9.900192042E0,-3.263214111E-2,1.296753387E0,1.017164795E1,1.025402634E1
9.910109042E0,-8.412506104E-2,1.350042572E0,1.006117767E1,1.015169878E1
9.920026042E0,-1.306782532E-1,1.407523041E0,9.901459808E0,1.000185504E1
9.929943042E0,-1.933978271E-1,1.442101135E0,9.699080658E0,9.807610515E0
9.939860042E0,-1.847158813E-1,1.471440125E0,9.601483612E0,9.715335483E0
9.949777042E0,-1.598675537E-1,1.516795807E0,9.588311005E0,9.708858588E0
9.959694042E0,-1.743873596E-1,1.560205536E0,9.584269409E0,9.711996312E0
9.969611042E0,-1.926493835E-1,1.587149506E0,9.515861664E0,9.649237304E0
9.979528042E0,-1.820214844E-1,1.628313904E0,9.428293762E0,9.569600893E0
9.989445042E0,-1.326242065E-1,1.660347290E0,9.314530334E0,9.462283956E0
9.999362042E0,-9.669891357E-2,1.672322388E0,9.226812744E0,9.377637563E0
1.000927904E1,-1.339714050E-1,1.663490753E0,9.311536560E0,9.459908188E0
1.001919604E1,-1.469943237E-1,1.675166473E0,9.528435516E0,9.675684649E0
1.002911304E1,-1.707948303E-1,1.712588654E0,9.716743927E0,9.867990845E0
1.003903004E1,-1.698966980E-1,1.731150055E0,9.790839844E0,9.944158599E0
1.004894704E1,-2.198927307E-1,1.736688538E0,9.795929260E0,9.951114006E0
1.005886404E1,-1.627116394E-1,1.740580444E0,9.792037354E0,9.946863370E0
1.006878104E1,-1.847158813E-1,1.754800873E0,9.862391052E0,1.001899213E1
1.007869804E1,-1.604663086E-1,1.753004608E0,9.909992065E0,1.006512381E1
1.008861504E1,-1.284329224E-1,1.749561768E0,9.940528564E0,1.009413540E1
1.009853204E1,-1.866618347E-1,1.780547333E0,9.936786346E0,1.009677742E1
1.010844892E1,-2.342628479E-1,1.800755310E0,9.848470001E0,1.001448751E1
1.011836592E1,-2.520758057E-1,1.828597412E0,9.684710541E0,9.859053148E0
1.012828292E1,-2.817141724E-1,1.837578735E0,9.656119995E0,9.833448624E0
1.013819992E1,-2.547702026E-1,1.836830292E0,9.716145172E0,9.891528213E0
1.014811592E1,-1.598675537E-1,1.817520447E0,9.757608948E0,9.926725069E0
1.015803292E1,-1.772314453E-1,1.821262665E0,9.755662994E0,9.925793124E0
1.016795092E1,-1.501377869E-1,1.830842743E0,9.693392487E0,9.865920353E0
1.017786692E1,-6.661148071E-2,1.841919708E0,9.629625092E0,9.804426791E0
1.018778392E1,-7.274871826E-2,1.848356323E0,9.648485870E0,9.824204449E0
1.019770092E1,-1.654060364E-1,1.858235779E0,9.715097351E0,9.892599047E0
1.020761792E1,-1.121168518E-1,1.862277374E0,9.805509338E0,9.981415761E0
1.021753492E1,-9.969268799E-2,1.878144379E0,9.840536499E0,1.001865877E1
1.022745192E1,-9.175918579E-2,1.881437531E0,9.818083191E0,9.997148817E0
1.023736892E1,-1.285826111E-1,1.908231812E0,9.807455292E0,9.992200030E0
1.024728592E1,-6.646179199E-2,1.900447998E0,9.804162140E0,9.986877141E0
1.025720292E1,-6.256988525E-2,1.899699554E0,9.819879456E0,1.000214007E1
1.026711992E1,-1.251397705E-1,1.895059204E0,9.834548950E0,1.001624992E1
1.027703692E1,-8.846603394E-2,1.895358582E0,9.863289185E0,1.004413679E1
1.028695392E1,-1.199006653E-1,1.898801422E0,9.901759186E0,1.008288937E1
1.029687092E1,-9.190887451E-2,1.908980255E0,9.896220703E0,1.007907918E1
1.030678792E1,-1.125659180E-1,1.950144653E0,9.902058563E0,1.009289349E1
1.031670492E1,-1.255888367E-1,1.967957611E0,9.933792572E0,1.012762877E1
1.032662192E1,-6.646179199E-2,1.944905548E0,9.923014984E0,1.011203744E1
1.033653892E1,-4.849914551E-2,1.939816132E0,9.959239655E0,1.014651139E1
1.034645592E1,-8.098159790E-2,1.968556366E0,9.928254089E0,1.012185761E1
1.035637292E1,-1.074765015E-1,2.001188507E0,9.841135254E0,1.004311952E1
1.036628992E1,-8.696914673E-2,2.009271698E0,9.850715332E0,1.005392107E1
1.037620692E1,-1.035845947E-1,2.035018158E0,9.868378601E0,1.007655322E1
1.038612392E1,-6.601272583E-2,2.040706329E0,9.839189301E0,1.004880521E1
1.039604092E1,-5.284011841E-2,2.059118042E0,9.780062256E0,9.994617397E0
1.040595792E1,-6.137237549E-2,2.090552673E0,9.736951904E0,9.959036572E0
1.041587492E1,-2.365081787E-2,2.089355164E0,9.754914551E0,9.976187762E0
1.042579192E1,-5.643264771E-2,2.111958160E0,9.719588013E0,9.946554331E0
1.043570892E1,-1.038839722E-1,2.148332520E0,9.664352875E0,9.900800017E0
1.044562592E1,-8.622070312E-2,2.169887695E0,9.629176025E0,9.871011982E0
1.045554292E1,-1.092727661E-1,2.206711121E0,9.572593689E0,9.824258977E0
1.046545992E1,-8.711883545E-2,2.211201782E0,9.549242249E0,9.802297207E0
1.047537692E1,-8.936416626E-2,2.230062561E0,9.517807617E0,9.775982141E0
1.048529392E1,-1.269360352E-1,2.261497192E0,9.498946838E0,9.765268729E0
1.049521092E1,-1.197509766E-1,2.274669800E0,9.531429291E0,9.799826903E0
1.050512792E1,-1.049317932E-1,2.291734314E0,9.655072174E0,9.923884095E0
1.051504492E1,-1.044827271E-1,2.287393341E0,9.731114044E0,9.996882788E0
1.052496192E1,-1.320254517E-1,2.307751007E0,9.783056030E0,1.005242910E1
1.053487892E1,-1.532812500E-1,2.331401825E0,9.735005951E0,1.001145696E1
1.054479592E1,-1.423539734E-1,2.342179413E0,9.683662720E0,9.963904492E0
1.055471292E1,-1.258882141E-1,2.345622253E0,9.634265442E0,9.916494451E0
1.056462992E1,-1.592687988E-1,2.362088013E0,9.623188477E0,9.910125266E0
1.057454692E1,-1.442999268E-1,2.375110931E0,9.723779297E0,1.001068720E1
1.058446392E1,-1.347198486E-1,2.376907196E0,9.839638367E0,1.012355276E1
1.059438092E1,-1.263372803E-1,2.400258636E0,9.861642609E0,1.015032992E1
1.060429792E1,-1.362167358E-1,2.419418793E0,9.809700623E0,1.010457167E1
1.061421492E1,-1.431024170E-1,2.447260895E0,9.802665253E0,1.010454404E1
1.062413192E1,-8.771759033E-2,2.442620544E0,9.797875214E0,1.009814083E1
1.063404892E1,-9.460327148E-2,2.451452179E0,9.736353149E0,1.004067429E1
1.064396592E1,-9.595046997E-2,2.479443970E0,9.661508789E0,9.975048921E0
1.065388292E1,-7.200027466E-2,2.482886810E0,9.563762054E0,9.881065509E0
1.066379992E1,-1.080752563E-1,2.526895294E0,9.568402405E0,9.897030093E0
1.067371692E1,-7.963439941E-2,2.530936890E0,9.550739136E0,9.880718659E0
1.068363392E1,-8.068222046E-2,2.559377747E0,9.559271393E0,9.896291913E0
1.069355092E1,-5.598358154E-2,2.558928680E0,9.596394196E0,9.931869497E0
1.070346792E1,-5.493576050E-2,2.565814362E0,9.579179993E0,9.917011173E0
1.071338492E1,-7.589218140E-2,2.595452728E0,9.571396179E0,9.917346384E0
1.072330192E1,-8.846603394E-2,2.609822845E0,9.604776764E0,9.953428465E0
1.073321892E1,-8.262817383E-2,2.632874908E0,9.600884857E0,9.955694237E0
1.074313592E1,-1.173559570E-1,2.660866699E0,9.585317230E0,9.948481815E0
1.075305192E1,-1.419049072E-1,2.681972809E0,9.576784973E0,9.946251835E0
1.076296892E1,-1.263372803E-1,2.686613159E0,9.542955322E0,9.914728824E0
1.077288592E1,-1.118174744E-1,2.715054016E0,9.550439758E0,9.929497522E0
1.078280292E1,-7.050338745E-2,2.726280670E0,9.596693573E0,9.976678032E0
1.079271992E1,-5.688171387E-2,2.734064484E0,9.645192719E0,1.002537215E1
1.080263692E1,-1.207987976E-1,2.748434601E0,9.677675171E0,1.006110739E1
1.081255392E1,-1.673519897E-1,2.784210205E0,9.681267700E0,1.007505719E1
1.082247092E1,-1.109193420E-1,2.799328766E0,9.623038788E0,1.002254559E1
1.083238792E1,-9.101074219E-2,2.811154175E0,9.546098785E0,9.951827610E0
1.084230492E1,-1.010398865E-1,2.833607483E0,9.553732910E0,9.965608508E0
1.085222192E1,-9.505233765E-2,2.840343475E0,9.557774506E0,9.971340908E0
1.086213892E1,-7.753875732E-2,2.861150208E0,9.570647736E0,9.989468997E0
1.087205592E1,-1.166075134E-1,2.890040131E0,9.645192719E0,1.006954179E1
1.088197292E1,-1.344204712E-1,2.913241882E0,9.657616882E0,1.008834035E1
1.089188992E1,-1.157093811E-1,2.930905151E0,9.679770813E0,1.011442320E1
1.090180692E1,-9.250762939E-2,2.942431183E0,9.693542175E0,1.013070673E1
1.091172392E1,-6.945556641E-2,2.967279510E0,9.686357117E0,1.013089759E1
1.092164092E1,-8.457412720E-2,3.003653870E0,9.595795441E0,1.005526626E1
1.093155792E1,-7.140151978E-2,3.018922119E0,9.540111237E0,1.000663337E1
1.094147492E1,-1.097218323E-1,3.057841187E0,9.560169525E0,1.003789186E1
1.095139192E1,-1.619631958E-1,3.091970215E0,9.590855713E0,1.007824514E1
1.096130892E1,-1.811233521E-1,3.126997375E0,9.569749603E0,1.006931108E1
1.097122592E1,-1.710942078E-1,3.174448700E0,9.523795166E0,1.004037211E1
1.098114292E1,-1.788780212E-1,3.183280334E0,9.510023804E0,1.003024545E1
1.099105992E1,-1.582209778E-1,3.188220062E0,9.539213104E0,1.005914349E1
1.100097692E1,-1.456471252E-1,3.215762787E0,9.481582947E0,1.001312931E1
1.101089392E1,-1.372645569E-1,3.275488586E0,9.305549011E0,9.866149676E0
1.102081092E1,-1.254391479E-1,3.330274658E0,9.163195038E0,9.750415764E0
1.103072792E1,-1.287322998E-1,3.363954620E0,9.096583557E0,9.699515199E0
1.104064492E1,-1.130149841E-1,3.366349640E0,9.177415466E0,9.775992887E0
1.105056192E1,-1.145118713E-1,3.393592987E0,9.272617493E0,9.874766908E0
1.106047892E1,-9.101074219E-2,3.415148163E0,9.341923370E0,9.947012224E0
1.107039592E1,-9.729766846E-2,3.429069214E0,9.369915161E0,9.978140740E0
1.108031292E1,-3.158432007E-2,3.432661743E0,9.529183960E0,1.012864804E1
1.109022992E1,-3.906875610E-2,3.461252289E0,9.573641510E0,1.018019673E1
1.110014692E1,-3.577560425E-2,3.483256531E0,9.573342133E0,1.018740573E1
1.111006342E1,-8.262817383E-2,3.537443848E0,9.558672638E0,1.019257372E1
1.111998042E1,-1.098715210E-1,3.572770386E0,9.346414032E0,1.000660858E1
1.112989742E1,-3.397933960E-2,3.570674744E0,9.287137299E0,9.949964418E0
1.113981442E1,-4.760101318E-2,3.619173889E0,9.303603058E0,9.982871098E0
1.114973142E1,-1.031355286E-1,3.667673035E0,9.305549011E0,1.000278485E1
1.115964842E1,-1.181044006E-1,3.692221985E0,9.265731812E0,9.974980593E0
1.116956542E1,-1.158590698E-1,3.718118134E0,9.140442352E0,9.868409810E0
1.117948242E1,-1.005908203E-1,3.701352997E0,9.182205505E0,9.900658082E0
1.118939942E1,-8.741821289E-2,3.751199341E0,9.126221924E0,9.867475110E0
1.119931642E1,-9.160949707E-2,3.837869110E0,9.103319550E0,9.879679065E0
1.120923342E1,-1.378633118E-1,3.823798370E0,9.104666748E0,9.876001056E0
1.121915042E1,-2.186952209E-1,3.821553040E0,9.110205231E0,9.881696948E0
1.122906742E1,-1.577719116E-1,3.811074829E0,9.035360870E0,9.807493532E0
1.123898442E1,-2.773731995E-1,4.069886627E0,8.859776001E0,9.753796381E0
1.124890142E1,-3.861968994E-2,3.748504944E0,8.968749390E0,9.720660801E0
1.125881842E1,1.058299255E-1,3.872746582E0,9.150321808E0,9.936687338E0
1.126873442E1,-2.643502808E-1,4.101321259E0,9.054071960E0,9.943185415E0
1.127865142E1,-1.881587219E-1,3.901187439E0,9.060508575E0,9.866482797E0
1.128856842E1,-3.847000122E-2,4.250560913E0,9.015452271E0,9.967302928E0
1.129848542E1,-5.254074097E-2,4.089795227E0,9.091194763E0,9.968902033E0
1.130840242E1,-2.854563904E-1,3.945495300E0,9.132808228E0,9.952718455E0
1.131831942E1,-2.387535095E-1,4.083508301E0,9.041647797E0,9.923882212E0
1.132823642E1,1.077758789E-1,4.418212280E0,9.032666473E0,1.005590767E1
1.133815342E1,3.038681030E-2,4.120331726E0,9.098080444E0,9.987648605E0
1.134807042E1,-2.453398132E-1,4.264481964E0,9.019044800E0,9.979437216E0
1.135798742E1,-8.008346558E-2,4.408931580E0,9.045988770E0,1.006354827E1
1.136790442E1,8.562194824E-2,4.442012787E0,9.153465271E0,1.017471057E1
1.137782142E1,-1.327738953E-1,4.410727844E0,9.114695892E0,1.012668901E1
1.138773842E1,-1.547781372E-1,4.447401581E0,9.152417450E0,1.017693875E1
1.139765542E1,-5.718109131E-2,4.418361969E0,8.914262695E0,9.949335232E0
1.140757242E1,1.601669312E-2,4.418361969E0,8.853638763E0,9.894902646E0
1.141748942E1,-1.526824951E-1,4.443809052E0,8.873846741E0,9.925517962E0
1.142740642E1,-2.377056885E-1,4.461322632E0,8.889114990E0,9.948681768E0
1.143732342E1,-2.453398132E-1,4.484524384E0,8.925639038E0,9.991905865E0
1.144724042E1,-2.519261169E-1,4.495601349E0,8.813971252E0,9.897473794E0
1.145715742E1,-1.366658020E-1,4.484374695E0,8.706045685E0,9.794055616E0
1.146707442E1,1.197509766E-3,4.597090302E0,8.628806305E0,9.776990279E0
1.147699142E1,1.082249451E-1,4.679419098E0,8.674161987E0,9.856457879E0
1.148690842E1,-1.317260742E-2,4.687651978E0,8.680299225E0,9.865183689E0
1.149682542E1,-5.224136353E-2,4.691244507E0,8.712781677E0,9.895608558E0
1.150674242E1,-8.681945801E-2,4.653223572E0,8.787626038E0,9.943962922E0
1.151665942E1,-1.001417542E-1,4.638254700E0,8.830437012E0,9.974971321E0
1.152657642E1,-1.422042847E-1,4.756359100E0,8.879983978E0,1.007458631E1
1.153649342E1,-4.340972900E-2,4.750970306E0,9.060358887E0,1.023052816E1
1.154641042E1,-3.832031250E-2,4.884492645E0,9.093140717E0,1.032206108E1
1.155632742E1,-1.426533508E-1,4.878355408E0,9.053173828E0,1.028487520E1
1.156624442E1,-1.185534668E-1,4.999303894E0,8.989855499E0,1.028710825E1
1.157616142E1,-7.529342651E-2,4.968917084E0,8.842112732E0,1.014291692E1
1.158607842E1,-7.993377686E-2,4.946314087E0,8.703650665E0,1.001129099E1
1.159599542E1,-1.448986816E-1,4.986730042E0,8.670719147E0,1.000349152E1
1.160591242E1,-1.678010559E-1,5.008434906E0,8.684490509E0,1.002661223E1
1.161582942E1,-1.839674377E-1,5.076094208E0,8.647966461E0,1.002935194E1
1.162574642E1,-2.863545227E-1,5.131778412E0,8.545878754E0,9.972421584E0
1.163566342E1,-1.544787598E-1,5.190755768E0,8.543783112E0,9.998201788E0
1.164558042E1,-1.152603149E-2,5.239254913E0,8.553512878E0,1.003057862E1
1.165549742E1,6.900650024E-2,5.281317444E0,8.464747467E0,9.977425796E0
1.166541442E1,2.260299683E-2,5.328020325E0,8.385711823E0,9.935213850E0
1.167533142E1,-9.310638428E-2,5.393883362E0,8.405321045E0,9.987595726E0
1.168524842E1,-1.279838562E-1,5.423072662E0,8.457861786E0,1.004796113E1
1.169516542E1,-5.403762817E-2,5.474415894E0,8.405620422E0,1.003128128E1
1.170508242E1,-1.451980591E-1,5.535189514E0,8.353528748E0,1.002201816E1
1.171499842E1,-1.029858398E-1,5.562881927E0,8.298293610E0,9.990892766E0
1.172491542E1,-5.059478760E-2,5.576952667E0,8.202492828E0,9.918964134E0
1.173483242E1,7.933502197E-3,5.618865509E0,8.071814575E0,9.834932795E0
1.174474942E1,5.777984619E-2,5.654192047E0,7.993976440E0,9.791674297E0
1.175466642E1,-3.412902832E-2,5.724246368E0,7.924221497E0,9.775553570E0
1.176458342E1,-9.669891357E-2,5.800138550E0,7.931107178E0,9.826159929E0
1.177450042E1,-6.780899048E-2,5.844745789E0,7.934400330E0,9.854966260E0
1.178441742E1,-9.250762939E-2,5.877677307E0,7.976313171E0,9.908441855E0
1.179433442E1,-7.200027466E-2,5.919739838E0,8.070617065E0,1.000916398E1
1.180425142E1,-1.224453735E-1,5.991740112E0,8.002808075E0,9.998043785E0
1.181416842E1,-1.161584473E-1,6.034102020E0,7.995623016E0,1.001767774E1
1.182408542E1,-9.520202637E-2,6.060297546E0,7.999365234E0,1.003624003E1
1.183400242E1,-6.062393188E-2,6.104455719E0,7.928712158E0,1.000662437E1
1.184391942E1,-5.328918457E-2,6.152056732E0,7.806416473E0,9.939355106E0
1.185383642E1,-8.472381592E-2,6.207291870E0,7.628137207E0,9.834944216E0
1.186375342E1,-9.580078125E-2,6.245612183E0,7.557484131E0,9.804713954E0
1.187367042E1,-1.035845947E-1,6.307583313E0,7.508685608E0,9.806971835E0
1.188358742E1,-1.309776306E-1,6.369404755E0,7.429500275E0,9.786927322E0
1.189350442E1,-1.076261902E-1,6.407874756E0,7.364984436E0,9.762962564E0
1.190342142E1,-1.405577087E-1,6.458918610E0,7.357799377E0,9.791557473E0
1.191333842E1,-1.282832336E-1,6.510261841E0,7.392377472E0,9.851254261E0
1.192325542E1,-7.155120850E-2,6.539900208E0,7.384893036E0,9.864687499E0
1.193317242E1,-3.697311401E-2,6.570436707E0,7.310348053E0,9.829201096E0
1.194308942E1,-1.721420288E-2,6.596033478E0,7.212751007E0,9.774033510E0
1.195300642E1,-2.260299683E-2,6.636449432E0,7.079677734E0,9.703855357E0
1.196292342E1,-2.020797729E-2,6.659202118E0,6.997199249E0,9.659512335E0
1.197284042E1,-5.014572144E-2,6.705455933E0,6.962471466E0,9.666522786E0
1.198275742E1,-6.167175293E-2,6.738237762E0,6.963219910E0,9.689895926E0
1.199267442E1,-3.143463135E-2,6.734046478E0,7.010970612E0,9.721217980E0
1.200259142E1,-5.807922363E-2,6.799310760E0,7.045848083E0,9.791729941E0
1.201250842E1,-8.996292114E-2,6.870712280E0,7.191944275E0,9.946800642E0
1.202242542E1,-1.282832336E-1,6.909032593E0,7.312294006E0,1.006085640E1
1.203234242E1,-1.505868530E-1,6.939718781E0,7.302863617E0,1.007542506E1
1.204225942E1,-1.371148682E-1,6.973997498E0,7.276069336E0,1.007951519E1
1.205217642E1,-1.423539734E-1,6.987918549E0,7.286248169E0,1.009656787E1
1.206209342E1,-1.019380188E-1,7.005282440E0,7.246281281E0,1.007933360E1
1.207201042E1,-1.960922241E-2,7.010371857E0,7.107819214E0,9.983325702E0
1.208192742E1,-2.933898926E-2,7.038213959E0,6.984625397E0,9.915760608E0
1.209184442E1,-5.912704468E-2,7.077432404E0,6.919211426E0,9.897930702E0
1.210176142E1,-7.484436035E-2,7.106771393E0,6.880891113E0,9.892343697E0
1.211167754E1,-2.978805542E-2,7.111411743E0,6.864125977E0,9.883789240E0
1.212159454E1,-3.996688843E-2,7.179969177E0,6.847809906E0,9.921998551E0
1.213151154E1,1.437011719E-2,7.214098206E0,6.680607605E0,9.832290547E0
1.214142854E1,3.592529297E-2,7.212301941E0,6.558162231E0,9.748234803E0
1.215134454E1,4.655319214E-2,7.245532837E0,6.450386353E0,9.700896731E0
1.216126154E1,1.282832336E-1,7.267986145E0,6.352639618E0,9.653813200E0
1.217117854E1,1.621128845E-1,7.294481049E0,6.329737244E0,9.659260216E0
1.218109554E1,5.718109131E-2,7.348967743E0,6.375092926E0,9.728946828E0
1.219101254E1,-1.916015625E-2,7.390581207E0,6.312073975E0,9.719225049E0
1.220092954E1,2.125579834E-2,7.396119690E0,6.343209229E0,9.743682137E0
1.221084654E1,8.622070312E-2,7.410639496E0,6.302793274E0,9.728834195E0
1.222076354E1,9.071136475E-2,7.431146851E0,6.255491638E0,9.713976925E0
1.223068054E1,3.173400879E-2,7.467820587E0,6.248905334E0,9.737462156E0
1.224059754E1,-5.298980713E-2,7.508236542E0,6.287824402E0,9.793526413E0
1.225051454E1,-1.800755310E-1,7.560926971E0,6.367458801E0,9.886585632E0
1.226043154E1,-2.157014465E-1,7.589816895E0,6.468498688E0,9.974633972E0
1.227034854E1,-1.604663086E-1,7.607480164E0,6.447691956E0,9.973576862E0
1.228026554E1,-1.380130005E-1,7.499853973E0,6.414461060E0,9.869760275E0
1.229018254E1,-1.351689148E-1,7.588170319E0,6.351741486E0,9.896626664E0
1.230009954E1,-1.131646729E-1,7.647297363E0,6.366111603E0,9.950946696E0
1.231001654E1,-8.547225952E-2,7.793992310E0,6.555617523E0,1.018477996E1
1.231993354E1,-1.459465027E-1,7.727380829E0,6.479126587E0,1.008527621E1
1.232985054E1,-1.749861145E-1,7.779322815E0,6.282136230E0,1.000068594E1
1.233976754E1,-5.972579956E-2,7.694149933E0,6.269562378E0,9.925266887E0
1.234968454E1,-3.427871704E-2,7.702382813E0,6.201454010E0,9.888675738E0
1.235960154E1,-1.291813660E-1,7.768994293E0,6.145769806E0,9.906787908E0
1.236951854E1,-8.726852417E-2,7.755222931E0,6.087391205E0,9.859382850E0
1.237943554E1,-2.245330811E-2,7.759264526E0,6.052513733E0,9.840711998E0
1.238935254E1,-4.775070190E-2,7.790848846E0,5.974226532E0,9.817891247E0
1.239926954E1,-5.313949585E-2,7.838000793E0,5.920787659E0,9.823075218E0
1.240918654E1,-7.619155884E-2,7.854765930E0,5.959257660E0,9.859812616E0
1.241910354E1,-9.220825195E-2,7.881560211E0,5.954317932E0,9.878329604E0
1.242902054E1,-5.029541016E-2,7.903414764E0,5.937552795E0,9.885394669E0
1.243893754E1,-4.266128540E-2,7.909102936E0,5.879174194E0,9.854969226E0
1.244885454E1,-8.307723999E-2,7.937992859E0,5.879174194E0,9.878427084E0
1.245877154E1,-8.247848511E-2,7.960146790E0,5.860912170E0,9.885394837E0
1.246868854E1,-6.451583862E-2,7.973020020E0,5.837710419E0,9.881906368E0
1.247860554E1,-9.654922485E-2,7.999365234E0,5.785469055E0,9.872731035E0
1.248852254E1,-1.327738953E-1,8.024512939E0,5.728437653E0,9.860295876E0
1.249843954E1,-1.465452576E-1,8.062982941E0,5.699248352E0,9.874948162E0
1.250835654E1,-1.124162292E-1,8.060887299E0,5.662125549E0,9.851406356E0
1.251827354E1,-1.064286804E-1,8.077203369E0,5.659580841E0,9.863234593E0
1.252819054E1,-1.181044006E-1,8.098309479E0,5.716312866E0,9.913263733E0
1.253810754E1,-1.052311707E-1,8.121660919E0,5.713468781E0,9.930567717E0
1.254802454E1,-8.996292114E-2,8.146060181E0,5.707630920E0,9.947031744E0
1.255794154E1,-9.744735718E-2,8.163274384E0,5.659880219E0,9.933921116E0
1.256785754E1,-1.273851013E-1,8.194559326E0,5.624403992E0,9.939866688E0
1.257777454E1,-1.121168518E-1,8.220006409E0,5.610782318E0,9.952987178E0
1.258769154E1,-1.552272034E-1,8.238268433E0,5.548212433E0,9.933570529E0
1.259760854E1,-1.228944397E-1,8.250692596E0,5.520819397E0,9.928165902E0
1.260752554E1,-4.745132446E-2,8.241262207E0,5.473667450E0,9.893517562E0
1.261744254E1,3.562591553E-2,8.241411896E0,5.390440521E0,9.847791034E0
1.262735954E1,3.068618774E-2,8.253836060E0,5.337001648E0,9.829055801E0
1.263727654E1,-6.301895142E-2,8.305328979E0,5.299429779E0,9.852229028E0
1.264719354E1,-9.849517822E-2,8.328830109E0,5.336253204E0,9.892153989E0
1.265711054E1,-1.422042847E-1,8.346493378E0,5.272336121E0,9.873282227E0
1.266702754E1,-1.284329224E-1,8.367000732E0,5.203479309E0,9.853902435E0
1.267694454E1,-5.718109131E-2,8.378227386E0,5.167254639E0,9.843702775E0
1.268686154E1,-9.969268799E-2,8.425678711E0,5.141807556E0,9.871179530E0
1.269677854E1,-9.460327148E-2,8.446335754E0,5.127138062E0,9.881147816E0
1.270669554E1,-1.368154907E-1,8.460855560E0,5.143603821E0,9.902598424E0
1.271661254E1,-1.544787598E-1,8.463100891E0,5.092110901E0,9.878134126E0
1.272652954E1,-1.115180969E-1,8.460406494E0,4.994064789E0,9.825049488E0
1.273644654E1,-7.604187012E-2,8.482710114E0,4.931794281E0,9.812479201E0
1.274636354E1,-1.691482544E-2,8.512797546E0,4.886139221E0,9.815414646E0
1.275628054E1,-1.646575928E-2,8.549920349E0,4.844825134E0,9.827193886E0
1.276619754E1,-2.110610962E-2,8.577612762E0,4.803211670E0,9.830906800E0
1.277611454E1,-6.571334839E-2,8.589438171E0,4.776716766E0,9.828519187E0
1.278603154E1,-1.591191101E-1,8.630003815E0,4.761298828E0,9.857598656E0
1.279594854E1,-1.498384094E-1,8.619974670E0,4.765789490E0,9.850845869E0
1.280586554E1,-1.005908203E-1,8.617130585E0,4.763843536E0,9.846789490E0
1.281578254E1,-1.811233521E-2,8.652606812E0,4.685256958E0,9.839693362E0
1.282569954E1,4.610412598E-2,8.661588135E0,4.592749329E0,9.804008415E0
1.283561654E1,4.221221924E-2,8.660690002E0,4.517156525E0,9.768010865E0
1.284553354E1,8.532257080E-3,8.686286774E0,4.514911194E0,9.789590073E0
1.285545054E1,8.831634521E-3,8.716074829E0,4.498445435E0,9.808468267E0
1.286536754E1,-1.990859985E-2,8.725954285E0,4.452191620E0,9.796156632E0
1.287528454E1,-5.867797852E-2,8.739575958E0,4.431085510E0,9.798885132E0
1.288520154E1,-7.499404907E-2,8.754844208E0,4.424798584E0,9.809778984E0
1.289511854E1,-5.927673340E-2,8.775501251E0,4.382586365E0,9.809179333E0
1.290503554E1,-6.227050781E-2,8.786877594E0,4.399052124E0,9.826736745E0
1.291495254E1,-5.777984619E-2,8.787775726E0,4.433779907E0,9.843106471E0
1.292486954E1,-1.871109009E-2,8.785231018E0,4.433630219E0,9.840615380E0
1.293478654E1,3.981719971E-2,8.773555298E0,4.443659363E0,9.834783501E0
1.294470354E1,-2.424957275E-2,8.805438995E0,4.390968933E0,9.839560565E0
1.295462054E1,-9.879455566E-2,8.843459930E0,4.382586365E0,9.870339769E0
1.296453754E1,-1.011895752E-1,8.846004639E0,4.406985626E0,9.883499365E0
1.297445354E1,-7.783813477E-3,8.829688568E0,4.372706909E0,9.853122678E0
1.298437054E1,-9.610015869E-2,8.869805145E0,4.302053833E0,9.858516407E0
1.299428754E1,-9.520202637E-2,8.878636780E0,4.313879242E0,9.871616312E0
1.300420454E1,-1.228944397E-1,8.903036041E0,4.322112122E0,9.897464675E0
1.301412154E1,-1.167572021E-2,8.870104523E0,4.356390839E0,9.882157239E0
1.302403854E1,-8.741821289E-2,8.908275146E0,4.306993561E0,9.895211042E0
1.303395554E1,-8.202941895E-2,8.908724213E0,4.279899902E0,9.883806913E0
1.304387254E1,-6.780899048E-2,8.931476898E0,4.228107605E0,9.881941690E0
1.305378954E1,-9.116043091E-2,8.946146393E0,4.214785309E0,9.889704784E0
1.306370654E1,-1.107696533E-1,8.965306549E0,4.185596008E0,9.894857522E0
1.307362354E1,-5.897735596E-2,8.943751373E0,4.151167603E0,9.860342764E0
1.308354054E1,-7.768844604E-2,8.968450012E0,4.092639313E0,9.858439413E0
1.309345754E1,-6.182144165E-2,8.982670441E0,4.068838806E0,9.861421772E0
1.310337454E1,-1.092727661E-1,9.011710052E0,3.982169037E0,9.852945186E0
1.311329254E1,-8.472381592E-2,9.018595734E0,3.967349854E0,9.853025525E0
1.312320954E1,-1.023870850E-1,9.040300598E0,3.939358063E0,9.861848709E0
1.313312654E1,-1.582209778E-1,9.065448303E0,3.824696503E0,9.840512698E0
1.314304354E1,-8.053253174E-2,9.044940948E0,3.817810822E0,9.817999884E0
1.315296054E1,-8.861572266E-2,9.062903595E0,3.783382416E0,9.821306269E0
1.316287754E1,-8.652008057E-2,9.069938965E0,3.739523621E0,9.810979332E0
1.317279454E1,-4.236190796E-2,9.060508575E0,3.714974670E0,9.792632280E0
1.318271154E1,-1.116677856E-1,9.097182312E0,3.643573151E0,9.800348005E0
1.319262854E1,-9.984237671E-2,9.106612701E0,3.600762177E0,9.793153305E0
1.320254554E1,-1.169068909E-1,9.122030640E0,3.611839142E0,9.811752759E0
1.321246254E1,-1.218466187E-1,9.131610718E0,3.581452332E0,9.809585195E0
1.322237954E1,-5.343887329E-2,9.124275970E0,3.600612488E0,9.809162960E0
1.323229654E1,-7.409591675E-2,9.140592041E0,3.614383850E0,9.829531204E0
1.324221354E1,-1.038839722E-1,9.149423676E0,3.600762177E0,9.833017529E0
1.325213054E1,-7.708969116E-2,9.145831146E0,3.640579376E0,9.844083927E0
1.326204754E1,-7.125183105E-2,9.147777100E0,3.617227936E0,9.837237449E0
1.327196454E1,-7.454498291E-2,9.157955933E0,3.538192291E0,9.817969164E0
1.328188154E1,-8.053253174E-2,9.167236633E0,3.513044586E0,9.817647134E0
1.329179854E1,-7.858657837E-2,9.179960175E0,3.468886414E0,9.813817688E0
1.330171554E1,-7.694000244E-2,9.178163910E0,3.436853027E0,9.800845436E0
1.331163254E1,-7.679031372E-2,9.184450836E0,3.422782288E0,9.801809654E0
1.332154954E1,-7.424560547E-2,9.189540253E0,3.415746918E0,9.804105746E0
1.333146654E1,-7.694000244E-2,9.210197296E0,3.410807190E0,9.821774773E0
1.334138354E1,-7.125183105E-2,9.207502899E0,3.433110809E0,9.826974931E0
1.335130054E1,-7.604187012E-2,9.207652588E0,3.512296143E0,9.855093746E0
1.336121754E1,-6.586303711E-2,9.207203522E0,3.459605713E0,9.835944607E0
1.337113354E1,-7.544311523E-2,9.206305389E0,3.441643066E0,9.828868581E0
1.338105154E1,-7.783813477E-2,9.216484222E0,3.441194000E0,9.838264905E0
1.339096754E1,-5.568420410E-2,9.207652588E0,3.423381042E0,9.823619734E0
1.340088454E1,-5.298980713E-2,9.215885468E0,3.399430847E0,9.823007836E0
1.341080154E1,-6.062393188E-2,9.224717102E0,3.392395477E0,9.828907770E0
1.342071854E1,-5.134323120E-2,9.232351227E0,3.358416138E0,9.824352613E0
1.343063554E1,-3.667373657E-2,9.233848114E0,3.286116486E0,9.801217144E0
1.344055254E1,-9.894424438E-2,9.252858582E0,3.271297302E0,9.814609923E0
1.345046954E1,-1.242416382E-1,9.249565430E0,3.303779755E0,9.822670578E0
1.346038654E1,-8.098159790E-2,9.241781616E0,3.275039520E0,9.805252129E0
1.347030354E1,-7.020401001E-2,9.245074768E0,3.258124695E0,9.802638043E0
1.348022054E1,-6.451583862E-2,9.239835663E0,3.236569519E0,9.790511101E0
1.349013754E1,-5.194198608E-2,9.238338776E0,3.221750336E0,9.784133918E0
1.350005454E1,-7.723937988E-2,9.249864807E0,3.217708740E0,9.793855952E0
1.350997154E1,-7.888595581E-2,9.239685974E0,3.179388428E0,9.771720968E0
1.351988854E1,-7.828720093E-2,9.242080994E0,3.204087067E0,9.782042931E0
1.352980554E1,-6.301895142E-2,9.228459320E0,3.265010376E0,9.789214757E0
1.353972254E1,-6.496490479E-2,9.228758698E0,3.325634308E0,9.809895570E0
1.354963954E1,-8.786727905E-2,9.237590332E0,3.369493103E0,9.833324950E0
1.355955654E1,-8.711883545E-2,9.228908386E0,3.433110809E0,9.847161496E0
1.356947354E1,-7.484436035E-2,9.239685974E0,3.514840851E0,9.885924579E0
1.357939054E1,-7.753875732E-2,9.229656830E0,3.552712097E0,9.890113280E0
1.358930754E1,-8.577163696E-2,9.216334534E0,3.562441864E0,9.881253516E0
1.359922454E1,-9.295669556E-2,9.226064301E0,3.565884705E0,9.891634706E0
1.360914154E1,-9.999206543E-2,9.214388580E0,3.596121826E0,9.891766653E0
1.361905854E1,-1.008901978E-1,9.205257568E0,3.586691437E0,9.879843177E0
1.362897554E1,-1.166075134E-1,9.192084961E0,3.573069763E0,9.862801365E0
1.363889254E1,-1.115180969E-1,9.196725311E0,3.554508362E0,9.860361171E0
1.364880954E1,-9.265731812E-2,9.213789825E0,3.544778595E0,9.872586470E0
1.365872654E1,-9.819580078E-2,9.215137024E0,3.518433380E0,9.864469891E0
1.366864354E1,-7.185058594E-2,9.217232666E0,3.532504120E0,9.871227172E0
1.367856054E1,-5.942642212E-2,9.213191071E0,3.546574860E0,9.872416849E0
1.368847754E1,-1.100212097E-1,9.201515350E0,3.542832642E0,9.860611164E0
1.369839454E1,-9.849517822E-2,9.218430176E0,3.564238129E0,9.883974385E0
1.370831154E1,-7.813751221E-2,9.203461304E0,3.564387817E0,9.869886826E0
1.371822854E1,-5.343887329E-2,9.197473755E0,3.548820190E0,9.858524430E0
1.372814554E1,-8.861572266E-2,9.208999786E0,3.512445831E0,9.856510819E0
1.373806254E1,-1.541793823E-2,9.216484222E0,3.529660034E0,9.869261325E0
1.374797954E1,-2.170486450E-2,9.196425934E0,3.540437622E0,9.854411175E0
1.375789654E1,-7.155120850E-2,9.200617218E0,3.541485443E0,9.858934826E0
1.376781354E1,-7.813751221E-2,9.204209747E0,3.551813965E0,9.866051134E0
1.377773054E1,-6.631210327E-2,9.194030914E0,3.583997040E0,9.868112106E0
1.378764754E1,-4.685256958E-2,9.198222198E0,3.589535522E0,9.873917766E0
1.379756454E1,-2.035766602E-2,9.188492432E0,3.583847351E0,9.862695850E0
1.380748154E1,-4.355941772E-2,9.194330292E0,3.563639374E0,9.860889033E0
1.381739854E1,-3.233276367E-2,9.183403015E0,3.543281708E0,9.843311516E0
1.382731554E1,-5.508544922E-2,9.200617218E0,3.503015442E0,9.845075357E0
1.383723254E1,-5.568420410E-2,9.192084961E0,3.465443573E0,9.823788771E0
1.384714954E1,-6.376739502E-2,9.206305389E0,3.467688904E0,9.837936345E0
1.385706654E1,-7.679031372E-2,9.206604767E0,3.452869720E0,9.833096023E0
1.386698254E1,-6.152206421E-2,9.205856323E0,3.467539215E0,9.837449050E0
1.387689954E1,-7.798782349E-2,9.207203522E0,3.460503845E0,9.836349204E0
1.388681654E1,-9.595046997E-2,9.207203522E0,3.472179565E0,9.840621633E0
1.389673354E1,-7.244934082E-2,9.206305389E0,3.501368866E0,9.849918363E0
1.390665054E1,-7.619155884E-2,9.207053833E0,3.482807465E0,9.844063860E0
1.391656754E1,-8.786727905E-2,9.216184845E0,3.462749176E0,9.845629264E0
1.392648454E1,-7.694000244E-2,9.201365662E0,3.467090149E0,9.833197034E0
1.393640154E1,-6.960525513E-2,9.194030914E0,3.490291901E0,9.834489661E0
1.394631854E1,-7.873626709E-2,9.192084961E0,3.489393768E0,9.832420567E0
1.395623554E1,-8.457412720E-2,9.200168152E0,3.523971863E0,9.852341067E0
1.396615254E1,-8.756790161E-2,9.191186829E0,3.562142487E0,9.857709803E0
1.397606954E1,-9.759704590E-2,9.202563171E0,3.556903381E0,9.866521969E0
1.398598654E1,-8.592132568E-2,9.201066284E0,3.593427429E0,9.878244982E0
1.399590354E1,-8.397537231E-2,9.187893677E0,3.590134277E0,9.864760829E0
1.400582054E1,-6.855743408E-2,9.194929047E0,3.604504395E0,9.876430136E0
1.401573754E1,-5.897735596E-2,9.188193054E0,3.641028442E0,9.883494223E0
1.402565454E1,-7.933502197E-2,9.191486206E0,3.640729065E0,9.886587927E0
1.403557154E1,-7.813751221E-2,9.196575623E0,3.622167664E0,9.884493272E0
1.404548854E1,-7.229965210E-2,9.185648346E0,3.595822449E0,9.864649100E0
1.405540554E1,-6.137237549E-2,9.190887451E0,3.574716339E0,9.861783592E0
1.406532254E1,-6.182144165E-2,9.188941498E0,3.555855560E0,9.853150588E0
1.407523954E1,-6.047424316E-2,9.193581848E0,3.552562408E0,9.856282463E0
1.408515654E1,-6.436614990E-2,9.186546478E0,3.530857544E0,9.841937522E0
1.409507354E1,-7.738906860E-2,9.194330292E0,3.534300385E0,9.850531853E0
1.410499054E1,-7.304809570E-2,9.187145233E0,3.561244354E0,9.853498613E0
1.411490796E1,-7.080276489E-2,9.186995544E0,3.581602020E0,9.860718696E0
1.412482496E1,-7.544311523E-2,9.192983093E0,3.604055328E0,9.874504779E0
1.413474196E1,-7.065307617E-2,9.197174377E0,3.594624939E0,9.874934776E0
1.414465896E1,-7.694000244E-2,9.187594299E0,3.578159180E0,9.860072611E0
1.415457596E1,-6.855743408E-2,9.194779358E0,3.575764160E0,9.865837871E0
1.416449296E1,-7.514373779E-2,9.196875000E0,3.568579102E0,9.865237612E0
1.417440996E1,-7.843688965E-2,9.199569397E0,3.576063538E0,9.870484277E0
1.418432696E1,-7.200027466E-2,9.192084961E0,3.567381592E0,9.860315481E0
1.419424396E1,-7.514373779E-2,9.199868774E0,3.588637390E0,9.875300014E0
1.420416096E1,-7.858657837E-2,9.191785583E0,3.627556458E0,9.882017199E0
1.421407796E1,-7.664062500E-2,9.194330292E0,3.628304901E0,9.884643633E0
1.422399496E1,-8.202941895E-2,9.201964417E0,3.641028442E0,9.896462301E0
1.423391196E1,-9.235794067E-2,9.212143250E0,3.719914398E0,9.935284413E0
1.424382896E1,-1.077758789E-1,9.213340759E0,3.720513153E0,9.936774210E0
1.425374596E1,-1.187031555E-1,9.218729553E0,3.723057861E0,9.942847925E0
1.426366296E1,-1.221459961E-1,9.227710876E0,3.733386383E0,9.955086215E0
1.427357996E1,-1.306782532E-1,9.233848114E0,3.714076538E0,9.953662257E0
1.428349696E1,-1.401086426E-1,9.237590332E0,3.695066071E0,9.950186875E0
1.429341396E1,-1.206491089E-1,9.237290955E0,3.735032959E0,9.964565800E0
1.430333096E1,-1.568737793E-1,9.251212006E0,3.670367432E0,9.953950474E0
1.431324796E1,-1.345701599E-1,9.235794067E0,3.697910156E0,9.949499520E0
1.432316496E1,-1.124162292E-1,9.243428192E0,3.665427704E0,9.944292956E0
1.433308196E1,-1.435514832E-1,9.277557220E0,3.456911316E0,9.901712521E0
1.434299896E1,-7.559280396E-2,9.289981384E0,3.442690887E0,9.907653049E0
1.435291596E1,-2.844085693E-2,9.271569672E0,3.239862671E0,9.821380920E0
1.436283296E1,2.095642090E-3,9.268725586E0,3.120710449E0,9.779985281E0
1.437274996E1,7.454498291E-2,9.273515625E0,3.059038696E0,9.765314473E0
1.438266696E1,5.463638306E-2,9.263187103E0,2.989882507E0,9.733910717E0
1.439258396E1,7.484436035E-4,9.286239166E0,2.957849121E0,9.745927859E0
1.440250096E1,-4.864883423E-2,9.319470062E0,3.013383636E0,9.794660274E0
1.441241796E1,-6.466552734E-2,9.331445160E0,3.018922119E0,9.807850996E0
1.442233496E1,-4.191284180E-3,9.319919128E0,3.002606049E0,9.791657327E0
1.443225196E1,-2.529739380E-2,9.329948273E0,3.007695465E0,9.802795863E0
1.444216896E1,-5.673202515E-2,9.354796600E0,3.022215271E0,9.831033674E0
1.445208596E1,-6.810836792E-2,9.362730103E0,3.072510681E0,9.854221208E0
1.446200296E1,-7.604187012E-2,9.365424500E0,3.072510681E0,9.856839266E0
1.447191996E1,-7.559280396E-2,9.366322632E0,3.079246674E0,9.859790768E0
1.448183696E1,-8.322692871E-2,9.375603333E0,3.090024261E0,9.872036999E0
1.449175396E1,-7.319778442E-2,9.382489014E0,3.024460602E0,9.858185428E0
1.450167096E1,-6.421646118E-2,9.381740570E0,2.999761963E0,9.849860492E0
1.451158796E1,-8.876541138E-2,9.390721893E0,2.995420990E0,9.857285827E0
1.452150496E1,-8.173004150E-2,9.397158508E0,2.976859589E0,9.857736091E0
1.453142096E1,-8.637039185E-2,9.406588898E0,2.997067566E0,9.872881470E0
1.454133796E1,-7.634124756E-2,9.412426758E0,2.982248383E0,9.873875170E0
1.455125496E1,-7.289840698E-2,9.410630493E0,3.036585388E0,9.888687035E0
1.456117196E1,-6.062393188E-2,9.422605591E0,2.982996826E0,9.883695738E0
1.457108896E1,-8.412506104E-2,9.408834229E0,2.963986359E0,9.865011591E0
1.458100596E1,-9.385482788E-2,9.433682556E0,2.944227448E0,9.882896871E0
1.459092296E1,-8.367599487E-2,9.434880066E0,2.900668030E0,9.871060660E0
1.460083996E1,-6.092330933E-2,9.479936371E0,2.795436859E0,9.883692249E0
1.461075696E1,-5.119354248E-2,9.460776215E0,2.746638336E0,9.851544524E0
1.462067396E1,-6.661148071E-2,9.460177460E0,2.797682190E0,9.865415364E0
1.463059096E1,-9.669891357E-2,9.474697266E0,2.693947906E0,9.850715420E0
1.464050796E1,-8.711883545E-2,9.479936371E0,2.562820587E0,9.820633007E0
1.465042496E1,-5.388793945E-2,9.491911469E0,2.520458679E0,9.820997871E0
1.466034196E1,-4.400848389E-2,9.493108978E0,2.440973969E0,9.802010444E0
1.467025896E1,-7.903564453E-2,9.508975983E0,2.427202606E0,9.814182766E0
1.468017596E1,-6.975494385E-2,9.525741119E0,2.376757507E0,9.818023522E0
1.469009296E1,-1.362167358E-2,9.508377228E0,2.322570190E0,9.787939280E0
1.470000996E1,-2.888992310E-2,9.529483337E0,2.270478516E0,9.796272760E0
1.470992696E1,-3.547622681E-2,9.543703766E0,2.194436646E0,9.792808194E0
1.471984396E1,-5.478607178E-2,9.547296295E0,2.243235168E0,9.807444727E0
1.472976096E1,-6.227050781E-2,9.552535400E0,2.223775635E0,9.808159270E0
1.473967796E1,-6.167175293E-2,9.554481354E0,2.174078979E0,9.798904875E0
1.474959496E1,-6.331832886E-2,9.562265167E0,2.175575867E0,9.806837140E0
1.475951196E1,-6.571334839E-2,9.580527191E0,2.062411194E0,9.800222418E0
1.476942896E1,-7.379653931E-2,9.575587463E0,2.150727539E0,9.814425615E0
1.477934596E1,-6.631210327E-2,9.590107269E0,2.150278473E0,9.828440987E0
1.478926296E1,-6.676116943E-2,9.588460693E0,2.032772827E0,9.801795799E0
1.479917996E1,-7.050338745E-2,9.602681122E0,1.994302826E0,9.807838662E0
1.480909696E1,-7.364685059E-2,9.593699799E0,1.960473175E0,9.792239517E0
1.481901396E1,-6.481521606E-2,9.608818359E0,2.077230377E0,9.830995744E0
1.482893096E1,-5.942642212E-2,9.610315247E0,1.986668701E0,9.813691618E0
1.483884796E1,-5.927673340E-2,9.613009644E0,1.921703796E0,9.803387864E0
1.484876496E1,-7.304809570E-2,9.605674896E0,1.888921967E0,9.789910747E0
1.485868196E1,-7.813751221E-2,9.608069916E0,1.996697845E0,9.813659626E0
1.486859896E1,-7.499404907E-2,9.638756104E0,1.979633331E0,9.840233303E0
1.487851596E1,-6.481521606E-2,9.626182251E0,1.869312744E0,9.806218225E0
1.488843296E1,-5.792953491E-2,9.630373535E0,1.829645233E0,9.802808370E0
1.489834996E1,-5.658233643E-2,9.630223846E0,1.811383209E0,9.799261300E0
1.490826696E1,-6.271957397E-2,9.641450500E0,1.903741150E0,9.827804020E0
1.491818396E1,-6.301895142E-2,9.641151123E0,1.784888306E0,9.805181927E0
1.492810096E1,-6.661148071E-2,9.630822601E0,1.759291534E0,9.790418161E0
1.493801796E1,-6.990463257E-2,9.646539917E0,1.776954803E0,9.809086981E0
1.494793496E1,-6.436614990E-2,9.655072174E0,1.733096008E0,9.809596498E0
1.495785196E1,-6.286926270E-2,9.653126221E0,1.662592621E0,9.795458774E0
1.496776896E1,-5.284011841E-2,9.644294586E0,1.829345856E0,9.816400379E0
1.497768596E1,-6.316864014E-2,9.654473419E0,1.717079315E0,9.806182165E0
1.498760296E1,-6.511459351E-2,9.651629333E0,1.693578186E0,9.799305882E0
1.499751996E1,-5.209167480E-2,9.658365326E0,1.765428772E0,9.818527031E0
1.500743696E1,-6.301895142E-2,9.652377777E0,1.708247681E0,9.802575084E0
1.501735396E1,-6.062393188E-2,9.659562836E0,1.700912933E0,9.808360426E0
1.502727096E1,-6.541397095E-2,9.664951630E0,1.702709198E0,9.814009762E0
1.503718796E1,-7.050338745E-2,9.662556610E0,1.717229004E0,9.814216547E0
1.504710496E1,-5.987548828E-2,9.653425598E0,1.716929626E0,9.805103681E0
1.505702196E1,-5.583389282E-2,9.664053497E0,1.716779938E0,9.815517346E0
1.506693896E1,-5.089416504E-2,9.663903809E0,1.737886047E0,9.819056724E0
1.507685596E1,-6.301895142E-2,9.668095093E0,1.753453674E0,9.826018212E0
1.508677296E1,-6.361770630E-2,9.669741669E0,1.758692780E0,9.828578302E0
1.509668996E1,-6.421646118E-2,9.658065948E0,1.771266632E0,9.819355738E0
1.510660646E1,-6.870712280E-2,9.660311279E0,1.760938110E0,9.819737151E0
1.511652346E1,-7.304809570E-2,9.661059723E0,1.772464142E0,9.822578079E0
1.512644046E1,-6.316864014E-2,9.672136688E0,1.754651184E0,9.830209518E0
1.513635746E1,-5.777984619E-2,9.672885132E0,1.750609589E0,9.830192227E0
1.514627446E1,-5.912704468E-2,9.671388245E0,1.739083557E0,9.826680935E0
1.515619146E1,-5.269042969E-2,9.668095093E0,1.715432739E0,9.819243784E0
1.516610846E1,-5.688171387E-2,9.660011902E0,1.729802856E0,9.813831229E0
1.517602546E1,-7.065307617E-2,9.667795715E0,1.731748810E0,9.821925462E0
1.518594246E1,-6.661148071E-2,9.679770813E0,1.728006592E0,9.833026333E0
1.519585946E1,-6.556365967E-2,9.669292603E0,1.747615814E0,9.826173165E0
1.520577646E1,-6.586303711E-2,9.662107544E0,1.753453674E0,9.820145616E0
1.521569346E1,-7.050338745E-2,9.668843536E0,1.750759277E0,9.826325056E0
1.522561046E1,-6.316864014E-2,9.672436066E0,1.773212585E0,9.833834074E0
1.523552746E1,-6.601272583E-2,9.674980774E0,1.756148071E0,9.833293787E0
1.524544446E1,-6.541397095E-2,9.670190735E0,1.757644958E0,9.828844471E0
1.525536146E1,-5.792953491E-2,9.675280151E0,1.756896515E0,9.833671095E0
1.526527846E1,-5.822891235E-2,9.666747894E0,1.807940369E0,9.834533738E0
1.527519546E1,-5.763015747E-2,9.660910034E0,1.747615814E0,9.817874768E0
1.528511246E1,-5.194198608E-2,9.659413147E0,1.730251923E0,9.813293638E0
1.529502946E1,-5.074447632E-2,9.678573303E0,1.750609589E0,9.835750613E0
1.530494646E1,-5.014572144E-2,9.674980774E0,1.693578186E0,9.822218418E0
1.531486346E1,-6.750961304E-2,9.679022369E0,1.639839935E0,9.817184249E0
1.532478046E1,-6.301895142E-2,9.676477661E0,1.737736359E0,9.831475930E0
1.533469746E1,-9.759704590E-2,9.666298828E0,1.541344757E0,9.788901975E0
1.534461446E1,-1.079255676E-1,9.663305054E0,1.411414948E0,9.766432544E0
1.535453146E1,-6.212081909E-2,9.669142914E0,1.535506897E0,9.790503823E0
1.536444846E1,-6.077362061E-2,9.656868439E0,1.604513397E0,9.789446599E0
1.537436546E1,-6.391708374E-2,9.669442291E0,1.629062347E0,9.805918812E0
1.538428246E1,-6.571334839E-2,9.665700073E0,1.689237213E0,9.812420625E0
1.539419946E1,-6.840774536E-2,9.670340424E0,1.771865387E0,9.831565007E0
1.540411646E1,-6.900650024E-2,9.668095093E0,1.826352081E0,9.839328562E0
1.541403346E1,-5.972579956E-2,9.668693848E0,1.783840485E0,9.832054453E0
1.542395046E1,-6.077362061E-2,9.660910034E0,1.821412354E0,9.831297935E0
1.543386746E1,-6.795867920E-2,9.665999451E0,1.810485077E0,9.834328649E0
1.544378446E1,-6.227050781E-2,9.661957855E0,1.832189941E0,9.834339184E0
1.545370146E1,-6.735992432E-2,9.666448517E0,1.897603912E0,9.851175813E0
1.546361846E1,-7.574249268E-2,9.666747894E0,1.884281616E0,9.848972991E0
1.547353546E1,-7.484436035E-2,9.656419373E0,1.859732666E0,9.834156922E0
1.548345246E1,-8.637039185E-2,9.660610657E0,1.908980255E0,9.847794866E0
1.549336946E1,-7.544311523E-2,9.662257233E0,1.858235779E0,9.839611105E0
1.550328646E1,-5.089416504E-2,9.663903809E0,1.819765778E0,9.833878915E0
1.551320346E1,-5.358856201E-2,9.651928711E0,1.816472626E0,9.821515788E0
1.552312046E1,-6.212081909E-2,9.658515015E0,1.792672119E0,9.823667574E0
1.553303746E1,-5.538482666E-2,9.657167816E0,1.771566010E0,9.818472582E0
1.554295446E1,-5.822891235E-2,9.658664703E0,1.812431030E0,9.827415769E0
1.555287146E1,-6.406677246E-2,9.653425598E0,1.797462158E0,9.819551952E0
1.556278846E1,-6.706054688E-2,9.652527466E0,1.763782196E0,9.812579234E0
1.557270546E1,-5.867797852E-2,9.654174042E0,1.791474609E0,9.819159883E0
1.558262246E1,-6.107299805E-2,9.653874664E0,1.776805115E0,9.816214258E0
1.559253946E1,-5.418731689E-2,9.653575287E0,1.776056671E0,9.815743955E0
1.560245646E1,-6.451583862E-2,9.656868439E0,1.866169281E0,9.835743903E0
1.561237346E1,-5.972579956E-2,9.659263458E0,1.876497803E0,9.840029559E0
1.562229046E1,-5.837860107E-2,9.658515015E0,1.855691071E0,9.835339836E0
1.563220746E1,-6.795867920E-2,9.652078400E0,1.876198425E0,9.832972915E0
1.564212446E1,-5.628295898E-2,9.656569061E0,1.889969788E0,9.839943069E0
1.565204146E1,-6.331832886E-2,9.658664703E0,1.890867920E0,9.842214921E0
1.566195846E1,-6.601272583E-2,9.661209412E0,1.917512512E0,9.849882193E0
1.567187546E1,-6.376739502E-2,9.660161591E0,1.937720490E0,9.852793966E0
1.568179246E1,-6.137237549E-2,9.658664703E0,1.922152863E0,9.848260864E0
1.569170946E1,-5.792953491E-2,9.658814392E0,1.894610138E0,9.843048251E0
1.570162646E1,-6.122268677E-2,9.658814392E0,1.880090332E0,9.840283702E0
1.571154346E1,-6.466552734E-2,9.649683380E0,1.847607880E0,9.825183247E0
1.572146046E1,-4.790039063E-2,9.657916260E0,1.869013367E0,9.837217691E0
1.573137746E1,-4.131408691E-2,9.659862213E0,1.895059204E0,9.844079145E0
1.574129446E1,-6.152206421E-2,9.662706299E0,1.851200409E0,9.838629017E0
1.575121146E1,-9.699829102E-2,9.668394470E0,1.766476593E0,9.828921602E0
1.576112946E1,-7.589218140E-2,9.651180267E0,1.744472351E0,9.807865413E0
1.577104546E1,-7.379653931E-2,9.662406921E0,1.778002625E0,9.824909505E0
1.578096346E1,-7.020401001E-2,9.663754120E0,1.834285583E0,9.836547966E0
1.579088046E1,-6.885681152E-2,9.668394470E0,1.824555817E0,9.839288431E0
1.580079746E1,-6.466552734E-2,9.661957855E0,1.782642975E0,9.825244384E0
1.581071446E1,-6.930587769E-2,9.669741669E0,1.702858887E0,9.818779743E0
1.582063146E1,-5.867797852E-2,9.653575287E0,1.351539459E0,9.747903253E0
1.583054846E1,1.140628052E-1,9.584269409E0,-4.834945679E-2,9.585070062E0
1.584046546E1,-4.864883423E-2,9.643546143E0,1.294957123E0,9.730224194E0
1.585038246E1,-1.284329224E-1,9.688452759E0,2.528242493E0,1.001372168E1
1.586029946E1,-1.377136230E-1,9.689949646E0,2.467169495E0,1.000005072E1
1.587021646E1,-8.427474976E-2,9.650431824E0,2.304607544E0,9.922154632E0
1.588013346E1,-7.050338745E-2,9.656569061E0,2.189197540E0,9.901862584E0
1.589005046E1,-7.244934082E-2,9.655820618E0,2.157014465E0,9.894080660E0
1.589996746E1,-7.424560547E-2,9.656718750E0,2.064806213E0,9.875279952E0
1.590988446E1,-6.990463257E-2,9.654174042E0,1.994003448E0,9.858195212E0
1.591980146E1,-6.092330933E-2,9.656569061E0,1.963167572E0,9.854291684E0
1.592971846E1,-6.601272583E-2,9.651629333E0,1.880240021E0,9.833290853E0
1.593963546E1,-6.646179199E-2,9.639654236E0,1.793121185E0,9.805235058E0
1.594955246E1,-6.661148071E-2,9.643246765E0,1.797911224E0,9.809644746E0
1.595946946E1,-5.538482666E-2,9.652527466E0,1.844614105E0,9.827357486E0
1.596938646E1,-6.556365967E-2,9.659263458E0,1.805695038E0,9.826810455E0
1.597930346E1,-5.568420410E-2,9.653126221E0,1.673519897E0,9.797275918E0
1.598922046E1,-5.418731689E-2,9.662406921E0,1.587448883E0,9.792090570E0
1.599913746E1,-5.852828979E-2,9.660311279E0,1.483564911E0,9.773740554E0
1.600905446E1,-7.020401001E-2,9.648036804E0,1.432221680E0,9.754014646E0
1.601897146E1,-6.975494385E-2,9.646390228E0,1.521136780E0,9.765836743E0
1.602888846E1,-4.475692749E-2,9.643246765E0,1.710343323E0,9.793849378E0
1.603880546E1,-2.844085693E-3,9.621841278E0,1.877695312E0,9.803345213E0
1.604872246E1,-5.418731689E-2,9.650880890E0,1.882784729E0,9.832970891E0
1.605863946E1,-8.427474976E-2,9.652078400E0,1.987566833E0,9.854955179E0
1.606855646E1,-7.095245361E-2,9.638606415E0,2.047442322E0,9.853922464E0
1.607847346E1,-1.016386414E-1,9.634265442E0,2.011966095E0,9.842632198E0
1.608839046E1,-8.023315430E-2,9.641899567E0,2.015558624E0,9.850641663E0
1.609830746E1,-7.499404907E-2,9.644144897E0,2.058369598E0,9.861644909E0
1.610822442E1,-8.262817383E-2,9.646240540E0,2.080523529E0,9.868402207E0
1.611814142E1,-1.080752563E-1,9.643995209E0,2.105970612E0,9.871850691E0
1.612805842E1,-7.813751221E-2,9.641749878E0,2.045047302E0,9.856554400E0
1.613797542E1,-8.666976929E-2,9.632169800E0,1.965263214E0,9.830995179E0
1.614789242E1,-1.736389160E-2,9.625882874E0,1.784289551E0,9.789872921E0
1.615780942E1,-5.882766724E-2,9.639654236E0,1.928439789E0,9.830832849E0
1.616772642E1,-8.457412720E-2,9.646839294E0,2.164199524E0,9.886982388E0
1.617764342E1,-4.939727783E-2,9.643695831E0,2.156565399E0,9.882008080E0
1.618756042E1,-3.263214111E-2,9.638007660E0,2.116448822E0,9.867705515E0
1.619747742E1,-5.987548828E-2,9.637708282E0,2.038760376E0,9.851169975E0
1.620739442E1,-6.541397095E-2,9.639354858E0,2.032323761E0,9.851486230E0
1.621731142E1,-5.852828979E-2,9.644743652E0,1.975442047E0,9.845144842E0
1.622722842E1,-7.424560547E-2,9.625433807E0,1.873204651E0,9.806293084E0
1.623714542E1,-7.499404907E-2,9.641300812E0,1.852697296E0,9.817983129E0
1.624706242E1,-8.397537231E-2,9.637708282E0,1.851649475E0,9.814330266E0
1.625697942E1,-8.053253174E-2,9.640402679E0,1.823807373E0,9.811733927E0
1.626689642E1,-7.229965210E-2,9.645342407E0,1.874102783E0,9.825991992E0
1.627681342E1,-5.927673340E-2,9.644444275E0,1.954785004E0,9.840731859E0
1.628673042E1,-6.795867920E-2,9.637558594E0,1.943258972E0,9.831755157E0
1.629664742E1,-8.113128662E-2,9.647587738E0,1.938917999E0,9.840829968E0
1.630656442E1,-7.274871826E-2,9.640851746E0,1.846709747E0,9.816397081E0
1.631648142E1,-2.784210205E-2,9.634415131E0,1.689087524E0,9.781397996E0
1.632639842E1,-3.487747192E-2,9.644144897E0,1.694476318E0,9.791935316E0
1.633631542E1,-5.748046875E-2,9.636959839E0,1.707948303E0,9.787307410E0
1.634623242E1,-8.113128662E-2,9.635762329E0,1.753453674E0,9.794340087E0
1.635614942E1,-9.864486694E-2,9.637708282E0,1.887425079E0,9.821279203E0
