"Time (s)","Acceleration x (m/s^2)","Acceleration y (m/s^2)","Acceleration z (m/s^2)","Absolute acceleration (m/s^2)"
3.059962500E-2,-2.415975952E-1,1.009500732E0,9.957443390E0,1.001140050E1
4.051762500E-2,-2.377056885E-1,9.885443115E-1,1.007809250E1,1.012924836E1
5.043462500E-2,-1.422042847E-1,9.636959839E-1,1.001058289E1,1.005786765E1
6.035162500E-2,-1.939965820E-1,1.034349060E0,9.616153107E0,9.673567761E0
7.026962500E-2,-4.933740234E-1,1.209185486E0,9.221124573E0,9.313145862E0
8.018662500E-2,-5.183720398E-1,1.165027313E0,9.466763763E0,9.552257030E0
9.010362500E-2,-4.340972900E-1,1.039588165E0,9.882449341E0,9.946456102E0
1.000216250E-1,-3.463796997E-1,9.422904968E-1,1.010009674E1,1.014986918E1
1.099386250E-1,-2.579136658E-1,8.912466431E-1,1.008288254E1,1.012548074E1
1.198556250E-1,-1.224453735E-1,8.786727905E-1,9.894424438E0,9.934117661E0
1.297736250E-1,8.202941895E-2,8.267308044E-1,9.639953613E0,9.675686969E0
1.396906250E-1,-1.815724182E-1,8.671467590E-1,9.875413971E0,9.915075045E0
1.496076250E-1,-4.311035156E-1,8.620573425E-1,1.020398071E1,1.024940074E1
1.595256250E-1,-5.110372925E-1,8.666976929E-1,1.022388931E1,1.027327780E1
1.694426250E-1,-4.537065125E-1,9.169931030E-1,9.890532532E0,9.943307282E0
1.793596250E-1,-3.110531616E-1,8.939410400E-1,9.677375793E0,9.723553203E0
1.892776250E-1,-3.423381042E-1,8.416996765E-1,9.775272217E0,9.817413134E0
1.991946250E-1,-3.611988831E-1,7.313790894E-1,1.027223877E1,1.030457517E1
2.091126250E-1,-2.064207458E-1,6.141728210E-1,1.062834824E1,1.064807983E1
2.190296250E-1,6.586303711E-2,5.270539856E-1,1.051114197E1,1.052455364E1
2.289466250E-1,3.204835510E-1,5.357359314E-1,1.011776001E1,1.013700105E1
2.388646250E-1,2.489323425E-1,6.221063232E-1,9.721683655E0,9.744748158E0
2.487816250E-1,1.691482544E-2,7.045848083E-1,9.739945679E0,9.765411803E0
2.586986250E-1,-1.372645569E-1,7.213499451E-1,1.003079086E1,1.005763156E1
2.686166250E-1,-2.564167786E-1,7.497908020E-1,1.013078293E1,1.016172714E1
2.785336250E-1,-3.088078308E-1,7.860154724E-1,9.967921600E0,1.000363152E1
2.884506250E-1,-3.384461975E-1,8.072712708E-1,9.895172882E0,9.933814932E0
2.983686250E-1,-3.426374817E-1,8.150550842E-1,9.917626190E0,9.956958596E0
3.082856250E-1,-3.083587646E-1,8.155041504E-1,9.847272491E0,9.885793224E0
3.182026250E-1,5.822891235E-2,7.436535645E-1,9.604028320E0,9.632952362E0
3.281206250E-1,-2.993774414E-4,6.735992432E-1,9.937235413E0,9.960039341E0
3.380376250E-1,-3.282673645E-1,7.725434875E-1,1.030382309E1,1.033795691E1
3.479546250E-1,-6.735992432E-2,7.632627869E-1,9.715396729E0,9.745565198E0
3.578726250E-1,-1.233435059E-1,7.610174561E-1,9.806557159E0,9.836814754E0
3.677896250E-1,-3.450325012E-1,8.128097534E-1,1.002061203E1,1.005944196E1
3.777076250E-1,-4.427792358E-1,8.470884705E-1,9.970017242E0,1.001573043E1
3.876246250E-1,-4.049079895E-1,8.190966797E-1,9.996212769E0,1.003788521E1
3.975410417E-1,-1.841171265E-2,6.900650024E-1,9.948162689E0,9.972084516E0
4.074590417E-1,8.173004150E-2,6.854246521E-1,9.942175140E0,9.966109235E0
4.173760417E-1,-9.984237671E-2,7.455995178E-1,9.877958679E0,9.906561200E0
4.272930417E-1,-3.252735901E-1,8.126600647E-1,9.900112610E0,9.938734777E0
4.372110417E-1,-5.137316895E-1,8.494834900E-1,1.003243744E1,1.008143558E1
4.471280417E-1,-6.029461670E-1,8.521778870E-1,1.000444565E1,1.005876155E1
4.570450417E-1,-7.467970276E-1,4.674778748E-1,9.751471710E0,9.791192056E0
4.669630417E-1,-7.646099854E-1,5.448669434E-1,9.575737152E0,9.621655285E0
4.768800417E-1,-4.628375244E-1,7.909552002E-1,9.793384552E0,9.836168445E0
4.867980417E-1,-1.389111328E-1,9.529183960E-1,1.002390518E1,1.007005585E1
4.967150417E-1,5.583389282E-2,9.042695618E-1,1.000654129E1,1.004747179E1
5.066320417E-1,-6.646179199E-2,8.421487427E-1,9.934391327E0,9.970243864E0
5.165500417E-1,-2.630030823E-1,8.044271851E-1,9.954000549E0,9.989914947E0
5.264670417E-1,-3.409909058E-1,6.987469482E-1,9.873917084E0,9.904481848E0
5.363840417E-1,-2.761756897E-1,7.038363647E-1,9.832153931E0,9.861181955E0
5.463020417E-1,-1.345701599E-1,6.810836792E-1,9.896071014E0,9.920393421E0
5.562190417E-1,-7.649093628E-2,6.259982300E-1,9.923464050E0,9.943483464E0
5.661360417E-1,-1.559756470E-1,4.866380310E-1,9.868228912E0,9.881451657E0
5.760540417E-1,-3.321592712E-1,5.559439087E-1,9.816885681E0,9.838223818E0
5.859710417E-1,-5.909710693E-1,7.557783508E-1,9.921817474E0,9.968094588E0
5.958890417E-1,-7.631130981E-1,8.268804932E-1,1.002255798E1,1.008552138E1
6.058060417E-1,-7.200027466E-1,8.473878479E-1,1.008812164E1,1.014922009E1
6.157230417E-1,-5.313949585E-1,7.770341492E-1,1.004620880E1,1.009021674E1
6.256410417E-1,-7.030879211E-1,7.580236816E-1,1.006477020E1,1.011773353E1
6.355580417E-1,-9.583071899E-1,8.641529846E-1,1.009575577E1,1.017788768E1
6.454750417E-1,-7.393125916E-1,9.874964905E-1,1.007345215E1,1.014870290E1
6.553930417E-1,-3.923341370E-1,9.632469177E-1,9.982291718E0,1.003632994E1
6.653100417E-1,-7.879614258E-1,1.156045990E0,9.953701172E0,1.005154180E1
6.752270417E-1,-1.311871948E0,1.249601440E0,9.889484711E0,1.005407478E1
6.851450417E-1,-1.424138489E0,8.494834900E-1,1.007734406E1,1.021286717E1
6.950620417E-1,-1.004710693E0,7.488926697E-1,1.000968475E1,1.008781803E1
7.049790417E-1,-4.860392761E-1,4.638853455E-1,9.617350616E0,9.640791289E0
7.148970417E-1,-2.691403198E-1,5.197192383E-1,9.266929321E0,9.285393026E0
7.248140417E-1,-3.141966248E-1,6.432124329E-1,9.199419708E0,9.227229526E0
7.347320417E-1,-6.735992432E-2,8.372090149E-1,9.764943695E0,9.800999013E0
7.446490417E-1,-3.098556519E-2,9.160949707E-1,1.031265472E1,1.035331046E1
7.545660417E-1,-5.926176453E-1,9.963281250E-1,1.014260834E1,1.020864189E1
7.644840417E-1,-8.231382751E-1,7.405101013E-1,1.002360580E1,1.008457164E1
7.744010417E-1,-6.207591248E-1,4.281097412E-1,1.004276596E1,1.007103609E1
7.843180417E-1,-5.483097839E-1,3.749702454E-1,9.846374359E0,9.868755460E0
7.942360417E-1,-5.292993164E-1,4.433779907E-1,9.641600189E0,9.666291741E0
8.041530417E-1,-4.541555786E-1,4.390370178E-1,9.272617493E0,9.294108131E0
8.140700417E-1,-2.116598511E-1,5.099894714E-1,8.715925140E0,8.733397976E0
8.239880417E-1,2.441423035E-1,5.496569824E-1,9.090745697E0,9.110619386E0
8.339050417E-1,2.480342102E-1,6.224057007E-1,1.016700760E1,1.018906047E1
8.438230417E-1,-5.568420410E-2,6.457571411E-1,1.128383514E1,1.130243507E1
8.537400417E-1,-3.097059631E-1,6.460565186E-1,1.106648712E1,1.108965482E1
8.636570417E-1,-4.691244507E-1,5.316943359E-1,1.039453445E1,1.041869105E1
8.735750417E-1,-5.565426636E-1,3.180885315E-1,1.046713348E1,1.048674418E1
8.834920417E-1,-4.528083801E-1,3.941304016E-1,1.033525772E1,1.035267726E1
8.934090417E-1,-4.459226990E-1,3.944297791E-1,1.004605911E1,1.006368350E1
9.033270417E-1,-4.442761230E-1,3.805087280E-1,9.826615448E0,9.844010328E0
9.132440417E-1,-2.718347168E-1,3.992198181E-1,9.889634399E0,9.901421066E0
9.231610417E-1,-2.303709412E-1,4.456233215E-1,9.950108643E0,9.962746254E0
9.330790417E-1,-8.098159790E-2,4.510121155E-1,9.752968597E0,9.763727076E0
9.429960417E-1,4.951702881E-1,1.290316772E-1,1.026385620E1,1.027660386E1
9.529140417E-1,-9.145980835E-2,3.643423462E-1,1.056173676E1,1.056841490E1
9.628310417E-1,-7.940986633E-1,6.381230164E-1,1.020038818E1,1.025113227E1
9.727480417E-1,-7.120692444E-1,7.247927856E-1,9.595645752E0,9.649289331E0
9.826660417E-1,-2.676434326E-1,5.831872559E-1,9.279054108E0,9.301214196E0
9.925830417E-1,-4.460723877E-2,3.598516846E-1,9.571545868E0,9.578411838E0
1.002500042E0,-3.118016052E-1,4.596940613E-1,9.936337280E0,9.951850954E0
1.012418042E0,-3.833528137E-1,5.266049194E-1,1.003528152E1,1.005639833E1
1.022335042E0,-4.011657715E-1,4.825964355E-1,1.013841705E1,1.015782130E1
1.032253042E0,-5.319937134E-1,3.418890381E-1,1.026684998E1,1.028630710E1
1.042170042E0,-5.264552307E-1,1.442999268E-1,1.054811508E1,1.056223032E1
1.052087042E0,-3.079096985E-1,-1.543290710E-1,1.063613205E1,1.064170714E1
1.062005042E0,-1.559756470E-1,-5.343887329E-2,9.892478485E0,9.893852369E0
1.071922042E0,-8.113128662E-2,-3.951782227E-2,9.213490448E0,9.213932395E0
1.081839042E0,2.284249878E-1,-1.166075134E-1,9.253906403E0,9.257459640E0
1.091757042E0,3.638932800E-1,1.561253357E-1,9.579928436E0,9.588108379E0
1.101674042E0,3.121009827E-1,4.420307922E-1,9.727970581E0,9.743008256E0
1.111591042E0,1.824705505E-1,5.650749207E-1,9.822124786E0,9.840057951E0
1.121509042E0,1.517843628E-1,6.777905273E-1,9.927206268E0,9.951475407E0
1.131426042E0,3.906875610E-2,9.093589783E-1,1.006177643E1,1.010286123E1
1.141344042E0,-1.669029236E-1,1.209035797E0,1.023017624E1,1.030272440E1
1.151261042E0,-4.152365112E-1,1.207688599E0,1.008737320E1,1.016789217E1
1.161178042E0,-5.337899780E-1,9.081614685E-1,1.001686981E1,1.007210851E1
1.171096042E0,-4.231700134E-1,5.285508728E-1,1.009051666E1,1.011320747E1
1.181013042E0,-1.297801208E-1,3.019221497E-1,1.016865417E1,1.017396322E1
1.190930042E0,-3.008743286E-2,3.731739807E-1,1.004486160E1,1.005183609E1
1.200848042E0,-1.019380188E-1,3.864962769E-1,9.840386810E0,9.848501577E0
1.210765042E0,-7.274871826E-2,3.546125793E-1,9.832153931E0,9.838815649E0
1.220683042E0,-6.496490479E-2,4.206253052E-1,9.852661285E0,9.861849750E0
1.230600042E0,-1.130149841E-1,5.592370605E-1,9.874815216E0,9.891283740E0
1.240517042E0,-5.224136353E-2,4.772076416E-1,1.004306534E1,1.005453220E1
1.250435042E0,-1.270857239E-1,4.643344116E-1,1.008033783E1,1.009182679E1
1.260352042E0,-2.829116821E-1,3.897894287E-1,1.002959335E1,1.004115121E1
1.270269042E0,-3.734733582E-1,4.123924255E-1,1.005743546E1,1.007281280E1
1.280187042E0,-4.128414917E-1,4.328997803E-1,1.012734009E1,1.014499175E1
1.290104042E0,-4.626878357E-1,4.695735168E-1,1.012988480E1,1.015131249E1
1.300022042E0,-5.221142578E-1,4.900808716E-1,1.019050873E1,1.021563756E1
1.309939042E0,-5.625302124E-1,5.504054260E-1,1.020308258E1,1.023339047E1
1.319856042E0,-5.225633240E-1,5.577401733E-1,1.028211823E1,1.031048504E1
1.329774042E0,-5.194198608E-1,6.200106812E-1,1.025981461E1,1.029164739E1
1.339691042E0,-4.165837097E-1,6.313870239E-1,1.001851639E1,1.004703251E1
1.349608042E0,-3.207829285E-1,6.715036011E-1,9.856253815E0,9.884308678E0
1.359526042E0,-2.863545227E-1,7.116201782E-1,9.845625916E0,9.875462109E0
1.369443042E0,-2.523751831E-1,7.487429810E-1,9.770931244E0,9.802826463E0
1.379361042E0,-5.125341797E-1,7.692503357E-1,1.001088226E1,1.005346712E1
1.389278042E0,-5.575904846E-1,8.312214661E-1,9.839338989E0,9.890117695E0
1.399195500E0,-2.800675964E-1,8.604107666E-1,9.429790649E0,9.473103833E0
1.409113500E0,2.453398132E-1,9.113049316E-1,8.368497620E0,8.421545031E0
1.419030500E0,-4.034111023E-1,9.491761780E-1,8.559949493E0,8.621856602E0
1.428947500E0,-1.765728149E0,1.064735870E0,1.039228912E1,1.059486345E1
1.438865500E0,-1.338516541E0,9.833052063E-1,1.102427490E1,1.114868390E1
1.448782500E0,-1.703457642E-1,6.297404480E-1,1.044961990E1,1.046996403E1
1.458700500E0,2.662962341E-1,5.653742981E-1,9.972412262E0,9.991975185E0
1.468617500E0,-1.484912109E-1,6.941065979E-1,9.995314636E0,1.002048643E1
1.478534500E0,-5.510041809E-1,8.419990540E-1,9.936486969E0,9.987309012E0
1.488452500E0,-5.023553467E-1,8.657995605E-1,9.698332214E0,9.749852179E0
1.498369500E0,-3.252735901E-1,7.812254333E-1,9.591903534E0,9.629160373E0
1.508286500E0,-1.995350647E-1,6.527925110E-1,9.738448792E0,9.762342811E0
1.518204500E0,-1.661544800E-1,7.026388550E-1,9.960137787E0,9.986273249E0
1.528121500E0,-9.056167603E-2,7.688012695E-1,9.882299652E0,9.912572987E0
1.538039500E0,-1.803749084E-1,8.509803772E-1,9.748627625E0,9.787361405E0
1.547956500E0,-5.239105225E-3,8.358618164E-1,1.010324020E1,1.013775888E1
1.557873500E0,-4.011657715E-1,7.418572998E-1,9.941726074E0,9.977434719E0
1.567791500E0,-4.263134766E-1,8.125103760E-1,9.819131012E0,9.861909051E0
1.577708500E0,-3.079096985E-1,7.776329041E-1,9.858050079E0,9.893466161E0
1.587625500E0,-2.963836670E-1,7.723937988E-1,9.760153656E0,9.795153641E0
1.597543500E0,-2.532733154E-1,7.210505676E-1,9.840835876E0,9.870466658E0
1.607460500E0,-2.451901245E-1,6.831793213E-1,1.004396347E1,1.007015662E1
1.617378500E0,-3.629951477E-1,7.017407227E-1,1.006252487E1,1.009349356E1
1.627295500E0,-3.667373657E-1,7.017407227E-1,1.000609222E1,1.003737107E1
1.637212500E0,-3.507206726E-1,6.831793213E-1,9.990225220E0,1.001969755E1
1.647130500E0,-3.662882996E-1,7.174580383E-1,1.002076172E1,1.005308801E1
1.657047500E0,-4.466711426E-1,7.622149658E-1,9.905651093E0,9.944969097E0
1.666964500E0,-4.090992737E-1,8.515791321E-1,9.872420197E0,9.917521352E0
1.676882500E0,-2.320175171E-1,8.482859802E-1,1.002270767E1,1.006121714E1
1.686799500E0,-3.115022278E-1,9.379495239E-1,1.001387604E1,1.006252932E1
1.696717500E0,-3.995191956E-1,9.357041931E-1,9.766141205E0,9.818995466E0
1.706634500E0,-2.330653381E-1,7.665559387E-1,9.851912842E0,9.884437976E0
1.716551500E0,-1.941462708E-1,6.902146912E-1,9.973759460E0,9.999498331E0
1.726469500E0,-2.966830444E-1,7.060816956E-1,9.865983582E0,9.895665931E0
1.736386500E0,-2.784210205E-1,6.604266357E-1,9.811646576E0,9.837788885E0
1.746303500E0,-2.281256104E-1,6.388714600E-1,9.864486694E0,9.887785181E0
1.756221500E0,-2.237846375E-1,5.881269836E-1,9.933343506E0,9.953255051E0
1.766138500E0,-2.100132751E-1,5.289999390E-1,9.978998566E0,9.995216800E0
1.776056500E0,-1.859133911E-1,4.331991577E-1,1.004620880E1,1.005726288E1
1.785973500E0,-1.999841309E-1,4.134402466E-1,1.012584320E1,1.013625311E1
1.795890500E0,-2.881507874E-1,3.281176758E-1,1.013018417E1,1.013959188E1
1.805808500E0,-3.924838257E-1,3.050656128E-1,1.010638367E1,1.011860165E1
1.815725500E0,-5.183720398E-1,4.053570557E-1,1.005489075E1,1.007640074E1
1.825643500E0,-4.381388855E-1,3.995191956E-1,9.897567902E0,9.915312987E0
1.835560500E0,-2.001338196E-1,3.791615295E-1,9.916129303E0,9.925393562E0
1.845477500E0,-1.511856079E-2,2.538720703E-1,9.954599304E0,9.957847504E0
1.855395500E0,-6.331832886E-2,2.498304749E-1,9.896669769E0,9.900025101E0
1.865312500E0,-1.077758789E-1,2.868035889E-1,9.944869537E0,9.949588034E0
1.875229500E0,-8.652008057E-2,3.303630066E-1,9.997110901E0,1.000294216E1
1.885147500E0,-5.792953491E-2,3.935316467E-1,1.006806335E1,1.007591796E1
1.895064500E0,-1.332229614E-2,4.085005188E-1,1.011042526E1,1.011868317E1
1.904982500E0,-8.292755127E-2,4.317022705E-1,1.003632935E1,1.004595195E1
1.914899500E0,-2.737806702E-1,4.715194702E-1,9.909243622E0,9.924232747E0
1.924816500E0,-2.621049500E-1,4.707710266E-1,1.000654129E1,1.002103752E1
1.934734500E0,-3.089575195E-1,4.974156189E-1,9.977202301E0,9.994370556E0
1.944651500E0,-3.393443298E-1,5.200186157E-1,9.894424438E0,9.913889696E0
1.954569500E0,-2.700384521E-1,5.084925842E-1,9.799072723E0,9.815972275E0
1.964486500E0,-2.291734314E-1,4.535568237E-1,1.003588028E1,1.004873759E1
1.974403500E0,-2.056723022E-1,4.281097412E-1,1.002944366E1,1.004068321E1
1.984321500E0,-1.496887207E-1,4.336482239E-1,9.923314362E0,9.933912895E0
1.994238500E0,-1.880090332E-1,4.390370178E-1,9.948611755E0,9.960069114E0
2.004156500E0,-1.516346741E-1,4.086502075E-1,9.989327087E0,9.998832118E0
2.014073500E0,-1.419049072E-1,4.194277954E-1,9.970166931E0,9.979994254E0
2.023990500E0,-1.627116394E-1,4.236190796E-1,9.999954987E0,1.001024615E1
2.033908500E0,-1.745370483E-1,4.203259277E-1,1.002540207E1,1.003572736E1
2.043825500E0,-1.377136230E-1,4.123924255E-1,9.949360199E0,9.958855402E0
2.053742500E0,-9.864486694E-2,5.917195129E-1,9.989925842E0,1.000792092E1
2.063660500E0,-2.308200073E-1,8.678952026E-1,1.006432114E1,1.010430997E1
2.073577500E0,-3.950285339E-1,8.183482361E-1,1.002240829E1,1.006351874E1
2.083495500E0,-3.619473267E-1,6.665638733E-1,9.934391327E0,9.963304888E0
2.093412500E0,-5.228627014E-1,5.092410278E-1,9.997559967E0,1.002416665E1
2.103329500E0,-5.692662048E-1,4.718188477E-1,9.993967438E0,1.002128047E1
2.113247500E0,-4.917274475E-1,4.429289246E-1,9.893675995E0,9.915785728E0
2.123164500E0,-3.773652649E-1,4.667294312E-1,9.899962921E0,9.918140287E0
2.133082500E0,-2.511776733E-1,3.986210632E-1,9.907896423E0,9.919092726E0
2.142999500E0,-1.868115234E-1,3.370989990E-1,9.929750977E0,9.937227417E0
2.152916500E0,-1.161584473E-1,2.935395813E-1,9.933642883E0,9.938657817E0
2.162834500E0,-1.511856079E-2,2.333647156E-1,9.899663544E0,9.902425255E0
2.172751500E0,6.840774536E-2,2.077679443E-1,9.876162415E0,9.878584472E0
2.182668500E0,1.372645569E-1,2.546205139E-1,9.926308136E0,9.930521959E0
2.192586500E0,2.131567383E-1,3.171903992E-1,9.925859070E0,9.933213167E0
2.202503500E0,1.767823792E-1,5.281018066E-1,9.946216736E0,9.961795565E0
2.212421500E0,-2.571652222E-1,5.122348022E-1,9.894873505E0,9.911460040E0
2.222338500E0,-3.632945251E-1,4.824467468E-1,1.004590942E1,1.006404660E1
2.232255500E0,-3.981719971E-1,5.370831299E-1,9.969568176E0,9.991961211E0
2.242173500E0,-4.230203247E-1,5.450166321E-1,9.885443115E0,9.909489135E0
2.252090500E0,-4.056564331E-1,3.097059631E-1,9.911488953E0,9.924620304E0
2.262008500E0,-3.421884155E-1,2.058219910E-1,9.934091949E0,9.942114386E0
2.271925500E0,-2.592608643E-1,3.125500488E-1,9.942474518E0,9.950763954E0
2.281842500E0,-2.592608643E-1,4.686753845E-1,9.961934052E0,9.976322111E0
2.291760500E0,-2.986289978E-1,6.099815369E-1,1.000279907E1,1.002582894E1
2.301677500E0,-3.406915283E-1,6.734495544E-1,1.000923569E1,1.003764933E1
2.311595500E0,-3.700305176E-1,6.074368286E-1,9.971963196E0,9.997297238E0
2.321512500E0,-4.257147217E-1,6.186634827E-1,9.955198059E0,9.983483657E0
2.331429500E0,-4.197271729E-1,6.165678406E-1,9.985734558E0,1.001355189E1
2.341347500E0,-4.090992737E-1,5.989045715E-1,9.968220978E0,9.994572445E0
2.351264500E0,-4.309538269E-1,6.063890076E-1,9.954898682E0,9.982656790E0
2.361182500E0,-3.573069763E-1,5.110372925E-1,1.000699036E1,1.002639932E1
2.371099500E0,-3.608995056E-1,5.014572144E-1,9.923464050E0,9.942678037E0
2.381016500E0,-3.438349915E-1,5.053491211E-1,9.930200043E0,9.948993573E0
2.390934500E0,-3.195854187E-1,4.968168640E-1,9.997110901E0,1.001454883E1
2.400852000E0,-3.315605164E-1,5.016069031E-1,9.948312378E0,9.966466828E0
2.410770000E0,-3.273692322E-1,5.173242188E-1,9.942025452E0,9.960856642E0
2.420687000E0,-3.582051086E-1,5.161267090E-1,9.946366425E0,9.966187974E0
2.430604000E0,-3.676354980E-1,5.194198608E-1,9.955946503E0,9.976263009E0
2.440522000E0,-3.721261597E-1,5.146298218E-1,9.934690704E0,9.954968665E0
2.450439000E0,-3.776646423E-1,5.152285767E-1,9.945318604E0,9.965814226E0
2.460357000E0,-3.716770935E-1,5.174739075E-1,9.956096191E0,9.976461020E0
2.470274000E0,-3.827540588E-1,5.221142578E-1,9.956694946E0,9.977719089E0
2.480191000E0,-3.797602844E-1,5.266049194E-1,9.945917358E0,9.967085969E0
2.490109000E0,-4.093986511E-1,5.324427795E-1,9.944869537E0,9.967523899E0
2.500026000E0,-4.192781067E-1,5.041516113E-1,9.929750977E0,9.951377665E0
2.509944000E0,-3.863465881E-1,5.186714172E-1,9.928553467E0,9.949595855E0
2.519861000E0,-3.635939026E-1,5.144801331E-1,9.930050354E0,9.950014591E0
2.529778000E0,-3.297642517E-1,5.141807556E-1,9.947114868E0,9.965852724E0
2.539696000E0,-3.058140564E-1,5.505551147E-1,9.947563934E0,9.967480193E0
2.549613000E0,-3.300636292E-1,5.706134033E-1,9.924062805E0,9.945932044E0
2.559531000E0,-3.366499329E-1,5.273533630E-1,9.963730316E0,9.983353973E0
2.569448000E0,-3.023712158E-1,5.120851135E-1,9.986782379E0,1.000447309E1
2.579366000E0,-3.055146790E-1,5.141807556E-1,9.901459808E0,9.919507417E0
2.589283000E0,-3.047662354E-1,5.004093933E-1,9.931397552E0,9.948665708E0
2.599200000E0,-2.883004761E-1,4.887336731E-1,9.970765686E0,9.986898725E0
2.609118000E0,-2.707868958E-1,4.980143738E-1,9.954898682E0,9.971025605E0
2.619035000E0,-2.754272461E-1,5.054988098E-1,9.931696930E0,9.948366354E0
2.628953000E0,-2.821632385E-1,5.104385376E-1,9.949809265E0,9.966888582E0
2.638870000E0,-2.701881409E-1,5.158273315E-1,9.947114868E0,9.964144402E0
2.648787000E0,-2.884501648E-1,5.077441406E-1,9.946965179E0,9.964091724E0
2.658705000E0,-3.047662354E-1,4.978646851E-1,9.955647125E0,9.972745930E0
2.668622000E0,-3.052153015E-1,4.980143738E-1,9.958341522E0,9.975456910E0
2.678540000E0,-3.192860413E-1,4.921765137E-1,9.967322845E0,9.984573401E0
2.688457000E0,-3.288661194E-1,5.069956970E-1,9.952653351E0,9.970983215E0
2.698374000E0,-3.159928894E-1,5.041516113E-1,9.944570160E0,9.962353940E0
2.708292000E0,-3.150947571E-1,5.180726624E-1,9.950857086E0,9.969314958E0
2.718209000E0,-3.382965088E-1,5.245092773E-1,9.948611755E0,9.968170864E0
2.728127000E0,-3.347039795E-1,5.144801331E-1,9.952653351E0,9.971560825E0
2.738044000E0,-3.131488037E-1,5.188211060E-1,9.949360199E0,9.967798447E0
2.747961000E0,-3.150947571E-1,5.023553467E-1,9.946067047E0,9.963728986E0
2.757879000E0,-3.055146790E-1,5.095404053E-1,9.961035919E0,9.978737757E0
2.767796000E0,-2.960842896E-1,5.057981873E-1,9.948312378E0,9.965561544E0
2.777714000E0,-3.224295044E-1,5.107379150E-1,9.949509888E0,9.967826293E0
2.787631000E0,-3.168910217E-1,5.204676819E-1,9.967472534E0,9.986081076E0
2.797549000E0,-3.029699707E-1,5.126838684E-1,9.952353973E0,9.970154721E0
2.807466000E0,-3.366499329E-1,5.239105225E-1,9.951306152E0,9.970772766E0
2.817383000E0,-3.375480652E-1,5.176235962E-1,9.978399811E0,9.997516475E0
2.827301000E0,-3.126997375E-1,5.046006775E-1,9.946516113E0,9.964215261E0
2.837218000E0,-2.987786865E-1,4.935237122E-1,9.944869537E0,9.961589455E0
2.847136000E0,-3.204835510E-1,5.026547241E-1,9.947414246E0,9.965260742E0
2.857053000E0,-3.288661194E-1,5.188211060E-1,9.954299927E0,9.973234946E0
2.866970000E0,-3.079096985E-1,5.159770203E-1,9.951605530E0,9.969728847E0
2.876888000E0,-2.965333557E-1,5.107379150E-1,9.924062805E0,9.941619979E0
2.886805000E0,-2.829116821E-1,4.926255798E-1,9.969568176E0,9.985740263E0
2.896723000E0,-3.170407104E-1,5.174739075E-1,9.962532806E0,9.980999648E0
2.906640000E0,-3.225791931E-1,5.077441406E-1,9.961484985E0,9.979631484E0
2.916558000E0,-3.162922668E-1,5.060975647E-1,9.977351990E0,9.995185254E0
2.926475000E0,-3.164419556E-1,5.093907166E-1,9.949509888E0,9.967565471E0
2.936392000E0,-3.097059631E-1,5.040019226E-1,9.949659576E0,9.967229375E0
2.946310000E0,-3.240760803E-1,5.128335571E-1,9.959089966E0,9.977549625E0
2.956227000E0,-3.326083374E-1,5.213658142E-1,9.958491211E0,9.977674970E0
2.966145000E0,-3.138972473E-1,5.125341797E-1,9.948611755E0,9.966749652E0
2.976062000E0,-3.088078308E-1,5.108876038E-1,9.938732300E0,9.956644422E0
2.985979000E0,-3.080593872E-1,5.185217285E-1,9.957593079E0,9.975842084E0
2.995897000E0,-3.119512939E-1,4.986131287E-1,9.963430939E0,9.980775758E0
3.005814000E0,-3.186872864E-1,5.113366699E-1,9.948462067E0,9.966690738E0
3.015732000E0,-3.323089600E-1,5.164260864E-1,9.969568176E0,9.988464085E0
3.025649000E0,-3.294648743E-1,5.098397827E-1,9.955198059E0,9.973687989E0
3.035567000E0,-3.255729675E-1,5.236111450E-1,9.946067047E0,9.965160114E0
3.045484000E0,-3.372486877E-1,5.209167480E-1,9.959688721E0,9.979002473E0
3.055401000E0,-3.064128113E-1,5.075944519E-1,9.959688721E0,9.977321301E0
3.065319000E0,-2.974314880E-1,5.078938293E-1,9.940378876E0,9.957788601E0
3.075236000E0,-3.158432007E-1,5.261558533E-1,9.928254089E0,9.947201927E0
3.085154000E0,-3.478765869E-1,5.260061646E-1,9.906249847E0,9.926302768E0
3.095071000E0,-2.841091919E-1,4.797523499E-1,1.000324814E1,1.001877506E1
3.104989000E0,-2.869532776E-1,5.010081482E-1,9.965227203E0,9.981938918E0
3.114906000E0,-2.477348328E-1,4.929249573E-1,9.940229187E0,9.955526297E0
3.124823000E0,-2.263293457E-1,4.646337891E-1,9.981393585E0,9.994765001E0
3.134741000E0,-2.456391907E-1,4.815486145E-1,9.967472534E0,9.982120837E0
3.144658000E0,-2.366578674E-1,4.802014160E-1,9.932445374E0,9.946862392E0
3.154576000E0,-2.659968567E-1,4.836442566E-1,9.952803040E0,9.968096831E0
3.164493000E0,-2.570155334E-1,4.885839844E-1,9.950557709E0,9.965860224E0
3.174411000E0,-2.266287231E-1,4.818479919E-1,9.939181366E0,9.953434799E0
3.184328000E0,-2.384541321E-1,4.691244507E-1,9.945767670E0,9.959680349E0
3.194245000E0,-2.401007080E-1,4.803511047E-1,9.970765686E0,9.985216768E0
3.204163000E0,-2.258802795E-1,4.824467468E-1,9.959838409E0,9.974074288E0
3.214080000E0,-2.360591125E-1,4.854405212E-1,9.940678253E0,9.955323226E0
3.223998000E0,-2.529739380E-1,4.785548401E-1,9.960437164E0,9.975135039E0
3.233915000E0,-2.351609802E-1,4.734654236E-1,9.965227203E0,9.979239621E0
3.243833000E0,-2.296224976E-1,4.758604431E-1,9.957293701E0,9.971302197E0
3.253750000E0,-2.359094238E-1,4.674778748E-1,9.965376892E0,9.979124482E0
3.263667000E0,-2.537223816E-1,4.688250732E-1,9.961634674E0,9.975887799E0
3.273585000E0,-2.612068176E-1,4.767585754E-1,9.960137787E0,9.974962279E0
3.283502000E0,-2.441423035E-1,4.796026611E-1,9.952204285E0,9.966744418E0
3.293420000E0,-2.469863892E-1,4.803511047E-1,9.946665802E0,9.961320195E0
3.303337000E0,-2.412982178E-1,4.689747620E-1,9.956545258E0,9.970504281E0
3.313255000E0,-2.505789185E-1,4.670288086E-1,9.969418488E0,9.983496917E0
3.323172000E0,-2.495310974E-1,4.728666687E-1,9.958042145E0,9.972385472E0
3.333090000E0,-2.444416809E-1,4.670288086E-1,9.975555725E0,9.989473443E0
3.343007000E0,-2.371069336E-1,4.782554626E-1,9.958640900E0,9.972937208E0
3.352924000E0,-2.525248718E-1,4.802014160E-1,9.958491211E0,9.973259718E0
3.362842000E0,-2.622546387E-1,4.740641785E-1,9.967771912E0,9.982484221E0
3.372759000E0,-2.555186462E-1,4.730163574E-1,9.967023468E0,9.981512464E0
3.382677000E0,-2.618055725E-1,4.715194702E-1,9.948911133E0,9.963518731E0
3.392594000E0,-2.378553772E-1,4.671784973E-1,9.951006775E0,9.964806409E0
3.402511750E0,-2.338137817E-1,4.667294312E-1,9.964628448E0,9.978292708E0
3.412428750E0,-2.314187622E-1,4.643344116E-1,9.968819733E0,9.982310752E0
3.422345750E0,-2.251318359E-1,4.664300537E-1,9.951904907E0,9.965372678E0
3.432263750E0,-2.462379456E-1,4.766088867E-1,9.918823700E0,9.933320328E0
3.442180750E0,-2.142045593E-1,4.433779907E-1,9.991572418E0,1.000369867E1
3.452098750E0,-1.936972046E-1,4.442761230E-1,9.969418488E0,9.981192557E0
3.462015750E0,-1.998344421E-1,4.610412598E-1,9.920919342E0,9.933636466E0
3.471933750E0,-1.932481384E-1,4.544549561E-1,9.961634674E0,9.973867832E0
3.481850750E0,-2.028282166E-1,4.480183411E-1,9.971065063E0,9.983185775E0
3.491768750E0,-2.029779053E-1,4.552033997E-1,9.936636658E0,9.949128516E0
3.501685750E0,-1.854643250E-1,4.520599365E-1,9.958940277E0,9.970920050E0
3.511602750E0,-1.646575928E-1,5.548960876E-1,9.984237671E0,1.000100113E1
3.521520750E0,-2.281256104E-1,5.417234802E-1,9.946067047E0,9.963420865E0
3.531437750E0,-2.245330811E-1,4.299060059E-1,9.928403778E0,9.940243249E0
3.541355750E0,-1.685494995E-1,3.350033569E-1,9.968819733E0,9.975871042E0
3.551272750E0,-1.969903564E-1,3.673361206E-1,9.968071289E0,9.976782360E0
3.561190750E0,-1.685494995E-1,4.519102478E-1,9.969717865E0,9.981377967E0
3.571107750E0,-1.824705505E-1,4.345463562E-1,9.957144012E0,9.968291876E0
3.581025750E0,-1.859133911E-1,4.366419983E-1,9.959838409E0,9.971138409E0
3.590942750E0,-1.868115234E-1,4.429289246E-1,9.951306152E0,9.962910153E0
3.600860750E0,-1.889071655E-1,4.523593140E-1,9.949659576E0,9.961728793E0
3.610777750E0,-1.818717957E-1,4.552033997E-1,9.956545258E0,9.968604765E0
3.620694750E0,-1.782792664E-1,4.415817261E-1,9.945917358E0,9.957311385E0
3.630612750E0,-1.956431580E-1,4.439767456E-1,9.955198059E0,9.967013594E0
3.640529750E0,-1.817221069E-1,4.421804810E-1,9.969119110E0,9.980575251E0
3.650447750E0,-1.844165039E-1,4.475692749E-1,9.958341522E0,9.970099978E0
3.660364750E0,-1.920506287E-1,4.541555786E-1,9.953551483E0,9.965757767E0
3.670282750E0,-1.895059204E-1,4.496649170E-1,9.960287476E0,9.972233332E0
3.680199750E0,-1.802252197E-1,4.463717651E-1,9.963880005E0,9.975501673E0
3.690117750E0,-1.811233521E-1,4.417314148E-1,9.960137787E0,9.971573449E0
3.700034750E0,-1.821711731E-1,4.501139832E-1,9.959988098E0,9.971817881E0
3.709952750E0,-1.911524963E-1,4.547543335E-1,9.951904907E0,9.964123246E0
3.719869750E0,-1.953437805E-1,4.504133606E-1,9.949659576E0,9.961764757E0
3.729786750E0,-1.884580994E-1,4.489164734E-1,9.958341522E0,9.970236122E0
3.739704750E0,-1.904040527E-1,4.474195862E-1,9.964179382E0,9.976036726E0
3.749621750E0,-1.989363098E-1,4.505630493E-1,9.963880005E0,9.976045683E0
3.759539750E0,-1.930984497E-1,4.492158508E-1,9.962832184E0,9.974823658E0
3.769456750E0,-1.975891113E-1,4.367916870E-1,9.961934052E0,9.973462713E0
3.779374750E0,-1.975891113E-1,4.408332825E-1,9.961784363E0,9.973491020E0
3.789291750E0,-1.975891113E-1,4.387376404E-1,9.968520355E0,9.980126765E0
3.799209750E0,-2.035766602E-1,4.385879517E-1,9.972262573E0,9.983978349E0
3.809126750E0,-2.037263489E-1,4.454736328E-1,9.972262573E0,9.984286255E0
3.819043750E0,-2.035766602E-1,4.502636719E-1,9.971813507E0,9.984049552E0
3.828961750E0,-2.005828857E-1,4.516108704E-1,9.966574402E0,9.978817123E0
3.838878750E0,-2.139051819E-1,4.471202087E-1,9.973011017E0,9.985320258E0
3.848796750E0,-2.082170105E-1,4.457730103E-1,9.981094208E0,9.993213171E0
3.858713750E0,-2.127076721E-1,4.477189636E-1,9.968071289E0,9.980387871E0
3.868631750E0,-2.324665833E-1,4.614903259E-1,9.967023468E0,9.980409353E0
3.878548750E0,-2.435435486E-1,4.493655396E-1,9.982142029E0,9.995218974E0
3.888466750E0,-2.239343262E-1,4.520599365E-1,9.965227203E0,9.977988674E0
3.898383750E0,-2.327659607E-1,4.604425049E-1,9.956395569E0,9.969754261E0
3.908301750E0,-2.115101624E-1,4.562512207E-1,9.973160706E0,9.985831772E0
3.918218750E0,-2.121089172E-1,4.736151123E-1,9.940977631E0,9.954513435E0
3.928136750E0,-1.791773987E-1,4.507127380E-1,9.934391327E0,9.946224286E0
3.938053750E0,-1.718426514E-1,4.369413757E-1,9.962532806E0,9.973590506E0
3.947971750E0,-1.862127686E-1,4.507127380E-1,9.927056580E0,9.939027593E0
3.957888750E0,-1.692979431E-1,4.544549561E-1,9.940229187E0,9.952052421E0
3.967805750E0,-1.757345581E-1,4.505630493E-1,9.934091949E0,9.945857055E0
3.977723750E0,-1.945953369E-1,4.581971741E-1,9.939480743E0,9.951938979E0
3.987640750E0,-2.059716797E-1,4.622387695E-1,9.954748993E0,9.967603349E0
3.997558750E0,-2.148033142E-1,4.712200928E-1,9.958191833E0,9.971648481E0
4.007475750E0,-2.110610962E-1,4.635859680E-1,9.957293701E0,9.970313766E0
4.017393750E0,-2.236349487E-1,4.670288086E-1,9.970466309E0,9.983903390E0
4.027310750E0,-2.345622253E-1,4.761598206E-1,9.956395569E0,9.970534606E0
4.037228750E0,-2.326162720E-1,4.764591980E-1,9.955497437E0,9.969606457E0
4.047145750E0,-2.540217590E-1,4.694238281E-1,9.958491211E0,9.972784615E0
4.057063750E0,-2.351609802E-1,4.668791199E-1,9.961634674E0,9.975341707E0
4.066980750E0,-2.261796570E-1,4.689747620E-1,9.954000549E0,9.967608615E0
4.076898750E0,-2.311193848E-1,4.652325439E-1,9.977651367E0,9.991165312E0
4.086815750E0,-2.329156494E-1,4.793032837E-1,9.977351990E0,9.991573153E0
4.096733750E0,-2.210902405E-1,4.625381470E-1,9.960886230E0,9.974070229E0
4.106650750E0,-2.300715637E-1,4.608915710E-1,9.952803040E0,9.966124739E0
4.116568750E0,-2.203417969E-1,4.617897034E-1,9.968071289E0,9.981194591E0
4.126485750E0,-2.176473999E-1,4.602928162E-1,9.961634674E0,9.974638101E0
4.136402750E0,-2.360591125E-1,4.688250732E-1,9.976004791E0,9.989804425E0
4.146320750E0,-2.142045593E-1,4.647834778E-1,9.960287476E0,9.973426386E0
4.156237750E0,-2.085163879E-1,4.635859680E-1,9.954449615E0,9.967419836E0
4.166155750E0,-2.100132751E-1,4.632865906E-1,9.962083740E0,9.975061528E0
4.176072750E0,-2.252815247E-1,4.656816101E-1,9.970316620E0,9.983727992E0
4.185990750E0,-2.662962341E-1,4.746629333E-1,9.965676270E0,9.980527145E0
4.195907750E0,-2.332150269E-1,4.626878357E-1,9.964179382E0,9.977642008E0
4.205825750E0,-2.100132751E-1,4.614903259E-1,9.946665802E0,9.959580286E0
4.215742750E0,-2.115101624E-1,4.592449951E-1,9.963580627E0,9.976401227E0
4.225660750E0,-2.148033142E-1,4.572990417E-1,9.974657593E0,9.987444967E0
4.235577750E0,-2.426454163E-1,4.635859680E-1,9.961784363E0,9.975516851E0
4.245495750E0,-2.406994629E-1,4.640350342E-1,9.973609772E0,9.987299766E0
4.255412750E0,-2.284249878E-1,4.704716492E-1,9.960437164E0,9.974158112E0
4.265330750E0,-2.279759216E-1,4.602928162E-1,9.957593079E0,9.970832584E0
4.275247750E0,-2.300715637E-1,4.587959290E-1,9.957892456E0,9.971110710E0
4.285165750E0,-2.252815247E-1,4.584965515E-1,9.959239655E0,9.972332994E0
4.295082750E0,-2.130070496E-1,4.598437500E-1,9.961634674E0,9.974517214E0
4.305000750E0,-2.043251038E-1,4.550537109E-1,9.959539032E0,9.972022882E0
4.314917750E0,-2.134561157E-1,4.649331665E-1,9.957144012E0,9.970277992E0
4.324835750E0,-2.212399292E-1,4.637356567E-1,9.954449615E0,9.967701090E0
4.334752750E0,-2.149530029E-1,4.656816101E-1,9.953850861E0,9.967056291E0
4.344670750E0,-2.067201233E-1,4.583468628E-1,9.957742767E0,9.970429082E0
4.354587750E0,-2.071691895E-1,4.559518433E-1,9.961185608E0,9.973767085E0
4.364505750E0,-2.031275940E-1,4.674778748E-1,9.954599304E0,9.967639825E0
4.374422750E0,-2.062710571E-1,4.580474854E-1,9.951904907E0,9.964575582E0
4.384340750E0,-2.151026917E-1,4.478686523E-1,9.950408020E0,9.962804588E0
4.394257750E0,-2.079176331E-1,4.617897034E-1,9.954299927E0,9.967174449E0
4.404175125E0,-2.022294617E-1,4.544549561E-1,9.968370667E0,9.980773507E0
4.414092125E0,-2.052232361E-1,4.569996643E-1,9.966724091E0,9.979306307E0
4.424010125E0,-2.233355713E-1,4.610412598E-1,9.964029694E0,9.977190264E0
4.433927125E0,-2.318678284E-1,4.646337891E-1,9.980345764E0,9.993845547E0
4.443845125E0,-2.110610962E-1,4.584965515E-1,9.975106659E0,9.987868578E0
4.453762125E0,-2.174977112E-1,4.638853455E-1,9.944121094E0,9.957310842E0
4.463679125E0,-2.285746765E-1,4.682263184E-1,9.975855103E0,9.989452803E0
4.473597125E0,-2.303709412E-1,4.596940613E-1,9.973909149E0,9.987154405E0
4.483514125E0,-2.260299683E-1,4.613406372E-1,9.952803040E0,9.966053034E0
4.493432125E0,-2.345622253E-1,4.568499756E-1,9.966125336E0,9.979347952E0
4.503349125E0,-2.249821472E-1,4.635859680E-1,9.965227203E0,9.978541082E0
4.513267125E0,-2.195933533E-1,4.679269409E-1,9.959838409E0,9.973242101E0
4.523184125E0,-2.234852600E-1,4.656816101E-1,9.964179382E0,9.977558609E0
4.533102125E0,-2.230361938E-1,4.556524658E-1,9.967322845E0,9.980224898E0
4.543019125E0,-2.243833923E-1,4.519102478E-1,9.958191833E0,9.970965619E0
4.552937125E0,-2.149530029E-1,4.487667847E-1,9.962682495E0,9.975100948E0
4.562854125E0,-2.186952209E-1,4.507127380E-1,9.959688721E0,9.972280029E0
4.572772125E0,-2.179467773E-1,4.558021545E-1,9.951156464E0,9.963973673E0
4.582689125E0,-2.163002014E-1,4.541555786E-1,9.954449615E0,9.967151560E0
4.592607125E0,-2.189945984E-1,4.567002869E-1,9.952952728E0,9.965831716E0
4.602524125E0,-2.125579834E-1,4.590953064E-1,9.960736542E0,9.973576182E0
4.612442125E0,-2.100132751E-1,4.592449951E-1,9.964029694E0,9.976818094E0
4.622359125E0,-2.140548706E-1,4.535568237E-1,9.968220978E0,9.980829762E0
4.632277125E0,-2.091151428E-1,4.523593140E-1,9.970915375E0,9.983361734E0
4.642195125E0,-2.168989563E-1,4.577481079E-1,9.965975647E0,9.978840067E0
4.652112125E0,-2.167492676E-1,4.577481079E-1,9.962233429E0,9.975099421E0
4.662029125E0,-2.149530029E-1,4.538562012E-1,9.962832184E0,9.975480709E0
4.671947125E0,-2.098635864E-1,4.531077576E-1,9.962682495E0,9.975188813E0
4.681865125E0,-2.047741699E-1,4.496649170E-1,9.966724091E0,9.978963879E0
4.691782125E0,-2.041754150E-1,4.559518433E-1,9.966724091E0,9.979236884E0
4.701700125E0,-2.061213684E-1,4.593946838E-1,9.951156464E0,9.963887015E0
4.711617125E0,-2.125579834E-1,4.561015320E-1,9.954000549E0,9.966711415E0
4.721535125E0,-2.014810181E-1,4.336482239E-1,9.966873779E0,9.978337452E0
4.731452125E0,-2.014810181E-1,4.427792358E-1,9.979447632E0,9.991297368E0
4.741370125E0,-2.171983337E-1,4.544549561E-1,9.956395569E0,9.969128204E0
4.751287125E0,-1.917512512E-1,4.424798584E-1,9.942923584E0,9.954611312E0
4.761205125E0,-2.004331970E-1,4.489164734E-1,9.970615997E0,9.982729228E0
4.771122125E0,-2.160008240E-1,4.490661621E-1,9.979597321E0,9.992030797E0
4.781040125E0,-2.029779053E-1,4.513114929E-1,9.956545258E0,9.968835216E0
4.790957125E0,-1.963916016E-1,4.429289246E-1,9.965227203E0,9.976998993E0
4.800875125E0,-2.095642090E-1,4.457730103E-1,9.977052612E0,9.989204651E0
4.810792125E0,-2.023791504E-1,4.439767456E-1,9.968220978E0,9.980155416E0
4.820710125E0,-2.052232361E-1,4.457730103E-1,9.959089966E0,9.971173607E0
4.830627125E0,-2.203417969E-1,4.495152283E-1,9.974208527E0,9.986763749E0
4.840545125E0,-2.142045593E-1,4.505630493E-1,9.972861328E0,9.985331929E0
4.850462125E0,-1.981878662E-1,4.427792358E-1,9.948162689E0,9.959983573E0
4.860380125E0,-1.945953369E-1,4.387376404E-1,9.951306152E0,9.962873692E0
4.870297125E0,-1.989363098E-1,4.372407532E-1,9.967622223E0,9.979190744E0
4.880215125E0,-1.972897339E-1,4.508624268E-1,9.968670044E0,9.980810719E0
4.890132125E0,-2.010319519E-1,4.466711426E-1,9.961185608E0,9.973221529E0
4.900050125E0,-1.911524963E-1,4.448748779E-1,9.964628448E0,9.976385771E0
4.909967125E0,-1.947450256E-1,4.457730103E-1,9.958640900E0,9.970514920E0
4.919885125E0,-1.850152588E-1,4.412823486E-1,9.963131561E0,9.974615344E0
4.929802125E0,-1.875599670E-1,4.405339050E-1,9.967472534E0,9.978965757E0
4.939720125E0,-1.969903564E-1,4.486170959E-1,9.960137787E0,9.972181669E0
4.949637125E0,-1.951940918E-1,4.379891968E-1,9.967023468E0,9.978551602E0
4.959555125E0,-1.919009399E-1,4.508624268E-1,9.969867554E0,9.981901719E0
4.969472125E0,-1.919009399E-1,4.448748779E-1,9.956994324E0,9.968775030E0
4.979390125E0,-1.993853760E-1,4.391867065E-1,9.967322845E0,9.978986131E0
4.989307125E0,-1.901046753E-1,4.330494690E-1,9.959539032E0,9.970761724E0
4.999225125E0,-1.791773987E-1,4.328997803E-1,9.955048370E0,9.966067169E0
5.009142125E0,-1.913021851E-1,4.321513367E-1,9.966574402E0,9.977773129E0
5.019060125E0,-1.911524963E-1,4.387376404E-1,9.962532806E0,9.974020750E0
5.028978125E0,-1.948947144E-1,4.815486145E-1,9.791887665E0,9.805658420E0
5.038895125E0,-9.235794067E-2,3.790118408E-1,1.008078690E1,1.008833209E1
5.048813125E0,-2.966830444E-1,4.453239441E-1,1.019859192E1,1.021262020E1
5.058730125E0,-2.426454163E-1,5.081932068E-1,9.673932953E0,9.690310414E0
5.068648125E0,-9.041198730E-2,3.855981445E-1,1.004890320E1,1.005670501E1
5.078565125E0,-3.110531616E-1,4.622387695E-1,1.009874954E1,1.011410703E1
5.088483125E0,-1.737886047E-1,4.334985352E-1,9.883497162E0,9.894525739E0
5.098400125E0,-2.047741699E-1,4.492158508E-1,9.950707397E0,9.962946605E0
5.108318125E0,-2.261796570E-1,4.388873291E-1,1.004605911E1,1.005818488E1
5.118235125E0,-2.195933533E-1,4.457730103E-1,9.929900665E0,9.942326792E0
5.128153125E0,-1.935475159E-1,4.375401306E-1,9.932445374E0,9.943961640E0
5.138070125E0,-2.055226135E-1,4.502636719E-1,9.958940277E0,9.971232038E0
5.147988125E0,-1.850152588E-1,4.252656555E-1,9.985584869E0,9.996348669E0
5.157905125E0,-1.719923401E-1,4.272116089E-1,9.971514130E0,9.982143315E0
5.167823125E0,-1.624122620E-1,4.291575623E-1,9.942624207E0,9.953207024E0
5.177740125E0,-1.950444031E-1,4.204756165E-1,9.990973663E0,1.000171969E1
5.187658125E0,-1.916015625E-1,4.320016479E-1,9.970166931E0,9.981360890E0
5.197575125E0,-1.776805115E-1,4.355941772E-1,9.951455841E0,9.962569247E0
5.207493125E0,-1.785786438E-1,4.251159668E-1,9.969418488E0,9.980076097E0
5.217411125E0,-1.853146362E-1,4.209246826E-1,9.974058838E0,9.984656669E0
5.227328125E0,-1.785786438E-1,4.293072510E-1,9.961634674E0,9.972480154E0
5.237246125E0,-1.790277100E-1,4.337979126E-1,9.959539032E0,9.970589214E0
5.247163125E0,-1.899549866E-1,4.227209473E-1,9.972711639E0,9.983474012E0
5.257081125E0,-1.776805115E-1,4.254153442E-1,9.969568176E0,9.980222352E0
5.266998125E0,-1.848655701E-1,4.370910645E-1,9.967771912E0,9.979063120E0
5.276916125E0,-1.796264648E-1,4.309538269E-1,9.969867554E0,9.980793852E0
5.286833125E0,-1.794767761E-1,4.167333984E-1,9.967921600E0,9.978243316E0
5.296751125E0,-1.910028076E-1,4.275109863E-1,9.969268799E0,9.980258919E0
5.306668125E0,-1.785786438E-1,4.272116089E-1,9.962383118E0,9.973137795E0
5.316586125E0,-1.594184875E-1,4.095483398E-1,9.992769928E0,1.000242945E1
5.326504125E0,-1.669029236E-1,4.173321533E-1,9.990075531E0,1.000018159E1
5.336421125E0,-1.661544800E-1,4.197271729E-1,9.949659576E0,9.959894773E0
5.346339125E0,-1.709445190E-1,4.173321533E-1,9.996661835E0,1.000682947E1
5.356256125E0,-1.859133911E-1,4.234693909E-1,9.971364441E0,9.982083897E0
5.366174125E0,-1.848655701E-1,4.465214539E-1,9.934690704E0,9.946438361E0
5.376091125E0,-1.972897339E-1,4.328997803E-1,9.956844635E0,9.968203476E0
5.386009125E0,-1.923500061E-1,4.260140991E-1,9.982591095E0,9.993528481E0
5.395926125E0,-1.889071655E-1,4.342469788E-1,9.977651367E0,9.988882979E0
5.405844750E0,-1.746867371E-1,4.435276794E-1,9.777966614E0,9.789579325E0
5.415761750E0,-7.604187012E-2,4.333488464E-1,9.702373810E0,9.712344266E0
5.425679750E0,-2.625540161E-1,3.219804382E-1,1.091470276E1,1.092260694E1
5.435597750E0,-4.834945679E-1,6.168672180E-1,9.648485870E0,9.680267132E0
5.445514750E0,-7.529342651E-2,4.737648010E-1,9.362879791E0,9.375160808E0
5.455432750E0,-3.195854187E-1,4.216731262E-1,1.041653870E1,1.042996747E1
5.465349750E0,-2.501298523E-1,4.653822327E-1,9.956994324E0,9.971002032E0
5.475267750E0,-1.788780212E-1,4.504133606E-1,9.846973114E0,9.858891877E0
5.485184750E0,-3.029699707E-1,4.634362793E-1,1.003543121E1,1.005069369E1
5.495102750E0,-2.165995789E-1,4.438270569E-1,9.929601288E0,9.941875053E0
5.505019750E0,-2.568658447E-1,4.565505981E-1,9.979597321E0,9.993336840E0
5.514937750E0,-2.613565063E-1,4.463717651E-1,1.003498215E1,1.004830442E1
5.524854750E0,-2.639012146E-1,4.616400146E-1,9.935289459E0,9.949509133E0
5.534772750E0,-2.754272461E-1,4.611909485E-1,9.965825958E0,9.980292796E0
5.544690750E0,-2.677931213E-1,4.593946838E-1,9.989925842E0,1.000406792E1
5.554607750E0,-2.674937439E-1,4.626878357E-1,9.945019226E0,9.959369475E0
5.564525750E0,-2.662962341E-1,4.665797424E-1,9.966574402E0,9.981042814E0
5.574442750E0,-2.709365845E-1,4.628375244E-1,9.977202301E0,9.991606025E0
5.584360750E0,-1.568737793E-1,5.608836365E-1,1.001836670E1,1.003528132E1
5.594277750E0,1.754351807E-1,5.240602112E-1,1.017344421E1,1.018844364E1
5.604195750E0,-4.564009094E-1,4.802014160E-1,9.729916534E0,9.752444358E0
5.614113750E0,-4.370910645E-1,4.203259277E-1,9.948013000E0,9.966478071E0
5.624030750E0,-4.257147217E-1,4.102967834E-1,1.002300705E1,1.004043061E1
5.633948750E0,-4.323010254E-1,4.649331665E-1,9.901160431E0,9.921493078E0
5.643865750E0,-2.612068176E-1,4.782554626E-1,9.981842651E0,9.996706458E0
5.653783750E0,-2.947370911E-1,4.703219604E-1,9.978100433E0,9.993525952E0
5.663700750E0,-2.878514099E-1,4.632865906E-1,9.977052612E0,9.991950347E0
5.673618750E0,-2.823129272E-1,4.770579529E-1,9.960886230E0,9.976298882E0
5.683535750E0,-2.942880249E-1,4.879852295E-1,9.963131561E0,9.979415090E0
5.693453750E0,-2.877017212E-1,4.881349182E-1,9.953102417E0,9.969217407E0
5.703371750E0,-2.927911377E-1,4.825964355E-1,9.958790588E0,9.974774983E0
5.713288750E0,-2.978805542E-1,4.870870972E-1,9.963430939E0,9.979776688E0
5.723206750E0,-2.909948730E-1,4.954696655E-1,9.967472534E0,9.984021080E0
5.733123750E0,-2.983296204E-1,4.939727783E-1,9.961784363E0,9.978484723E0
5.743041750E0,-3.085084534E-1,4.947212219E-1,9.970316620E0,9.987349000E0
5.752958750E0,-3.086581421E-1,4.869374084E-1,9.965975647E0,9.982637351E0
5.762876750E0,-2.989283752E-1,4.968168640E-1,9.970765686E0,9.987610001E0
5.772794750E0,-2.998265076E-1,4.849914551E-1,9.992470551E0,1.000872521E1
5.782711750E0,-2.933898926E-1,4.947212219E-1,9.975106659E0,9.991675514E0
5.792629750E0,-3.115022278E-1,5.174739075E-1,9.912237396E0,9.930622492E0
5.802546750E0,-2.968327332E-1,5.117857361E-1,9.936936035E0,9.954533243E0
5.812464750E0,-3.252735901E-1,5.152285767E-1,9.955198059E0,9.973827339E0
5.822381750E0,-3.204835510E-1,5.105882263E-1,9.946516113E0,9.964767576E0
5.832299750E0,-3.128494263E-1,5.117857361E-1,9.938582611E0,9.956667300E0
5.842216750E0,-3.065625000E-1,5.098397827E-1,9.958491211E0,9.976245003E0
5.852134750E0,-3.171903992E-1,5.093907166E-1,9.969717865E0,9.987760658E0
5.862052750E0,-3.152444458E-1,5.090913391E-1,9.962981873E0,9.980959916E0
5.871969750E0,-3.216810608E-1,5.031037903E-1,9.961185608E0,9.979068636E0
5.881887750E0,-3.103047180E-1,5.053491211E-1,9.975855103E0,9.993465454E0
5.891804750E0,-3.113525391E-1,4.906796265E-1,9.968220978E0,9.985145786E0
5.901722750E0,-3.035687256E-1,5.029541016E-1,9.974208527E0,9.991494009E0
5.911640750E0,-3.044668579E-1,5.081932068E-1,9.972262573E0,9.989843904E0
5.921557750E0,-3.106040955E-1,5.043013000E-1,9.956844635E0,9.974444836E0
5.931475750E0,-3.112028503E-1,5.040019226E-1,9.953551483E0,9.971161030E0
5.941392750E0,-3.186872864E-1,5.057981873E-1,9.957443390E0,9.975373289E0
5.951310750E0,-3.209326172E-1,5.049000549E-1,9.951156464E0,9.969124173E0
5.961227750E0,-3.082090759E-1,5.072950745E-1,9.955796814E0,9.973476391E0
5.971145750E0,-3.118016052E-1,4.999603271E-1,9.964329071E0,9.981735040E0
5.981063750E0,-3.065625000E-1,5.146298218E-1,9.958341522E0,9.976341528E0
5.990980750E0,-3.029699707E-1,5.099894714E-1,9.954898682E0,9.972556735E0
6.000898750E0,-3.100053406E-1,5.054988098E-1,9.958940277E0,9.976578762E0
6.010815750E0,-3.129991150E-1,5.093907166E-1,9.970017242E0,9.987927271E0
6.020733750E0,-3.116519165E-1,5.191204834E-1,9.963880005E0,9.982260152E0
6.030651750E0,-3.097059631E-1,5.114863586E-1,9.945767670E0,9.963725740E0
6.040568750E0,-3.020718384E-1,4.986131287E-1,9.956545258E0,9.973597942E0
6.050486750E0,-3.083587646E-1,5.140310669E-1,9.954599304E0,9.972630564E0
6.060403750E0,-3.014730835E-1,5.111869812E-1,9.958491211E0,9.976158847E0
6.070321750E0,-3.016227722E-1,5.117857361E-1,9.955647125E0,9.973355033E0
6.080238750E0,-3.095562744E-1,5.098397827E-1,9.959089966E0,9.976935133E0
6.090156750E0,-3.098556519E-1,5.119354248E-1,9.970615997E0,9.988557041E0
6.100074750E0,-3.020718384E-1,5.062472534E-1,9.959539032E0,9.976971054E0
6.109991750E0,-2.880010986E-1,5.031037903E-1,9.965227203E0,9.982074497E0
6.119909750E0,-3.055146790E-1,5.066963196E-1,9.966574402E0,9.984121678E0
6.129826750E0,-3.026705933E-1,5.022056580E-1,9.961335297E0,9.978578100E0
6.139744750E0,-2.984793091E-1,5.022056580E-1,9.956545258E0,9.973670031E0
6.149662750E0,-2.969824219E-1,4.927752686E-1,9.955946503E0,9.972557184E0
6.159579750E0,-2.894979858E-1,4.998106384E-1,9.953102417E0,9.969847917E0
6.169497750E0,-2.956352234E-1,5.068460083E-1,9.963580627E0,9.980843250E0
6.179414750E0,-2.972817993E-1,5.041516113E-1,9.960736542E0,9.977916504E0
6.189332750E0,-2.950364685E-1,5.008584595E-1,9.965376892E0,9.982316480E0
6.199250750E0,-2.935395813E-1,4.983137512E-1,9.954898682E0,9.971684403E0
6.209167750E0,-2.893482971E-1,4.945715332E-1,9.956994324E0,9.973467772E0
6.219085750E0,-2.932402039E-1,4.887336731E-1,9.962981873E0,9.979271427E0
6.229002750E0,-2.968327332E-1,4.992118835E-1,9.971364441E0,9.988264664E0
6.238920750E0,-2.900967407E-1,4.956193542E-1,9.970316620E0,9.986841751E0
6.248837750E0,-2.800675964E-1,4.903802490E-1,9.962981873E0,9.978973817E0
6.258755750E0,-2.814147949E-1,4.957690430E-1,9.957293701E0,9.973599104E0
6.268673750E0,-2.778222656E-1,4.893324280E-1,9.969568176E0,9.985435447E0
6.278590750E0,-2.887495422E-1,4.932243347E-1,9.966574402E0,9.982948054E0
6.288508750E0,-2.809657288E-1,4.935237122E-1,9.961634674E0,9.977809017E0
6.298426750E0,-2.793191528E-1,4.999603271E-1,9.966724091E0,9.983164259E0
6.308343750E0,-2.769241333E-1,4.972659302E-1,9.956545258E0,9.972800702E0
6.318261750E0,-2.781216431E-1,4.912783813E-1,9.952204285E0,9.968203259E0
6.328178750E0,-2.815644836E-1,5.002597046E-1,9.963281250E0,9.979805188E0
6.338096750E0,-2.739303589E-1,4.920268250E-1,9.956994324E0,9.972906507E0
6.348013750E0,-2.673440552E-1,4.885839844E-1,9.954449615E0,9.970017768E0
6.357931750E0,-2.594105530E-1,4.828958130E-1,9.952952728E0,9.968036427E0
6.367849750E0,-2.799179077E-1,4.866380310E-1,9.957742767E0,9.973555616E0
6.377766750E0,-2.751278687E-1,4.887336731E-1,9.962532806E0,9.978307265E0
6.387684750E0,-2.769241333E-1,4.896318054E-1,9.959239655E0,9.975113071E0
6.397602750E0,-2.781216431E-1,4.893324280E-1,9.956096191E0,9.971993243E0
6.407519875E0,-2.697390747E-1,4.930746460E-1,9.964628448E0,9.980466016E0
6.417437875E0,-2.754272461E-1,5.007087708E-1,9.961035919E0,9.977414797E0
6.427354875E0,-2.812651062E-1,4.980143738E-1,9.972561951E0,9.988949907E0
6.437272875E0,-2.764750671E-1,4.872367859E-1,9.961934052E0,9.977673486E0
6.447190875E0,-2.721340942E-1,4.888833618E-1,9.950707397E0,9.966425719E0
6.457107875E0,-2.592608643E-1,4.799020386E-1,9.980645142E0,9.995538985E0
6.467025875E0,-2.719844055E-1,4.842430115E-1,9.963730316E0,9.979197795E0
6.476942875E0,-2.625540161E-1,4.912783813E-1,9.955647125E0,9.971218518E0
6.486860875E0,-2.573149109E-1,4.851411438E-1,9.968969421E0,9.984083544E0
6.496778875E0,-2.576142883E-1,4.745132446E-1,9.951455841E0,9.966092579E0
6.506695875E0,-2.668949890E-1,4.764591980E-1,9.966724091E0,9.981674980E0
6.516613875E0,-2.598596191E-1,4.743635559E-1,9.963580627E0,9.978250685E0
6.526530875E0,-2.517764282E-1,4.793032837E-1,9.970765686E0,9.985453989E0
6.536448875E0,-2.685415649E-1,4.854405212E-1,9.970915375E0,9.986336690E0
6.546366875E0,-2.606080627E-1,4.867877197E-1,9.973011017E0,9.988284517E0
6.556283875E0,-2.585124207E-1,4.890330505E-1,9.968071289E0,9.983407596E0
6.566201875E0,-2.589614868E-1,4.833448792E-1,9.956844635E0,9.971932531E0
6.576119875E0,-2.640509033E-1,4.842430115E-1,9.971963196E0,9.987205022E0
6.586036875E0,-2.550695801E-1,4.845423889E-1,9.955347748E0,9.970395709E0
6.595954875E0,-2.514770508E-1,4.848417664E-1,9.957443390E0,9.972411499E0
6.605871875E0,-2.603086853E-1,4.842430115E-1,9.969717865E0,9.984864857E0
6.615789875E0,-2.592608643E-1,4.758604431E-1,9.972861328E0,9.987573400E0
6.625707875E0,-2.552192688E-1,4.851411438E-1,9.958042145E0,9.973118979E0
6.635624875E0,-2.516267395E-1,4.848417664E-1,9.965975647E0,9.980934733E0
6.645542875E0,-2.550695801E-1,4.781057739E-1,9.969119110E0,9.983836009E0
6.655459875E0,-2.531236267E-1,4.855902100E-1,9.957144012E0,9.972190647E0
6.665377875E0,-2.573149109E-1,4.825964355E-1,9.963580627E0,9.978579518E0
6.675295875E0,-2.537223816E-1,4.840933228E-1,9.959089966E0,9.974076115E0
6.685212875E0,-2.613565063E-1,4.881349182E-1,9.970316620E0,9.985679567E0
6.695130875E0,-2.474354553E-1,4.739144897E-1,9.965676270E0,9.980006150E0
6.705048875E0,-2.436932373E-1,4.806504822E-1,9.958640900E0,9.973211110E0
6.714965875E0,-2.528242493E-1,4.861889648E-1,9.976902924E0,9.991941341E0
6.724883875E0,-2.603086853E-1,4.825964355E-1,9.965526581E0,9.980600181E0
6.734800875E0,-2.487826538E-1,4.790039062E-1,9.954000549E0,9.968624002E0
6.744718875E0,-2.677931213E-1,4.809498596E-1,9.977501678E0,9.992675601E0
6.754636875E0,-2.670446777E-1,4.893324280E-1,9.977501678E0,9.993062535E0
6.764553875E0,-2.649490356E-1,5.004093933E-1,9.965676270E0,9.981748898E0
6.774471875E0,-2.791694641E-1,4.960684204E-1,9.966125336E0,9.982368140E0
6.784389875E0,-2.781216431E-1,4.855902100E-1,9.971364441E0,9.987054536E0
6.794306875E0,-2.544708252E-1,4.761598206E-1,1.000594254E1,1.002049747E1
6.804224875E0,-3.008743286E-1,5.221142578E-1,9.926457825E0,9.944731952E0
6.814141875E0,-2.872526550E-1,5.087919617E-1,9.961634674E0,9.978754869E0
6.824059875E0,-3.038681030E-1,5.031037903E-1,9.985734558E0,1.000301674E1
6.833977875E0,-2.821632385E-1,5.134323120E-1,9.955497437E0,9.972720694E0
6.843894875E0,-3.037184143E-1,5.095404053E-1,9.978250122E0,9.995866736E0
6.853812875E0,-2.911445618E-1,5.153782654E-1,9.977501678E0,9.995044755E0
6.863730875E0,-2.787203979E-1,5.049000549E-1,9.939181366E0,9.955899525E0
6.873647875E0,-2.948867798E-1,5.117857361E-1,9.964329071E0,9.981820309E0
6.883565875E0,-2.908451843E-1,5.119354248E-1,9.976304169E0,9.993663676E0
6.893483875E0,-2.929408264E-1,5.099894714E-1,9.952204285E0,9.969567378E0
6.903400875E0,-2.891986084E-1,5.125341797E-1,9.964478760E0,9.981841718E0
6.913318875E0,-2.909948730E-1,5.146298218E-1,9.974657593E0,9.992162727E0
6.923235875E0,-2.929408264E-1,5.087919617E-1,9.967622223E0,9.984897414E0
6.933153875E0,-2.850073242E-1,5.104385376E-1,9.962383118E0,9.979521735E0
6.943071875E0,-2.784210205E-1,5.176235962E-1,9.979297943E0,9.996591414E0
6.952988875E0,-2.911445618E-1,5.179229736E-1,9.970316620E0,9.988003948E0
6.962906875E0,-2.996768188E-1,5.206173706E-1,9.963281250E0,9.981373749E0
6.972824875E0,-3.068618774E-1,5.254074097E-1,9.962383118E0,9.980946575E0
6.982741875E0,-2.921923828E-1,5.328918457E-1,9.961185608E0,9.979707853E0
6.992659875E0,-2.908451843E-1,5.291496277E-1,9.954299927E0,9.972596316E0
7.002577875E0,-2.947370911E-1,5.287005615E-1,9.964179382E0,9.982548021E0
7.012494875E0,-2.891986084E-1,5.324427795E-1,9.951605530E0,9.970034291E0
7.022412875E0,-2.883004761E-1,5.336402893E-1,9.945318604E0,9.963797030E0
7.032330875E0,-2.990780640E-1,5.306465149E-1,9.952653351E0,9.971275853E0
7.042247875E0,-3.043171692E-1,5.266049194E-1,9.962083740E0,9.980632952E0
7.052165875E0,-2.966830444E-1,5.279521179E-1,9.975406036E0,9.993772054E0
7.062082875E0,-2.959346008E-1,5.388793945E-1,9.965676270E0,9.984621765E0
7.072000875E0,-2.984793091E-1,5.322930908E-1,9.952803040E0,9.971495082E0
7.081918875E0,-2.981799316E-1,5.285508728E-1,9.960437164E0,9.978907044E0
7.091835875E0,-3.161425781E-1,5.298980713E-1,9.982291718E0,1.000134421E1
7.101753875E0,-2.936892700E-1,5.382806396E-1,9.972561951E0,9.991395863E0
7.111671875E0,-2.891986084E-1,5.397775269E-1,9.975406036E0,9.994184369E0
7.121588875E0,-3.086581421E-1,5.435197449E-1,9.972561951E0,9.992130675E0
7.131506875E0,-3.155438232E-1,5.505551147E-1,9.962083740E0,9.982273853E0
7.141424875E0,-3.165916443E-1,5.548960876E-1,9.958341522E0,9.978812846E0
7.151341875E0,-3.043171692E-1,5.556445312E-1,9.946067047E0,9.966222930E0
7.161259875E0,-3.098556519E-1,5.529501343E-1,9.955647125E0,9.975804432E0
7.171177875E0,-3.076103210E-1,5.490582275E-1,9.968520355E0,9.988367590E0
7.181094875E0,-3.083587646E-1,5.519023132E-1,9.951755219E0,9.971815944E0
7.191012875E0,-3.177891541E-1,5.610333252E-1,9.949060822E0,9.969932777E0
7.200930875E0,-3.200344849E-1,5.590873718E-1,9.958640900E0,9.979455362E0
7.210847875E0,-3.116519165E-1,5.557942200E-1,9.956395569E0,9.976765350E0
7.220765875E0,-3.068618774E-1,5.599855042E-1,9.958491211E0,9.978942588E0
7.230683875E0,-3.071612549E-1,5.655239868E-1,9.967173157E0,9.987928021E0
7.240600875E0,-3.144960022E-1,5.653742981E-1,9.973310394E0,9.994272162E0
7.250518875E0,-3.031196594E-1,5.535488892E-1,9.967771912E0,9.987731213E0
7.260436875E0,-3.216810608E-1,5.572911072E-1,9.977052612E0,9.997781299E0
7.270353875E0,-3.314108276E-1,5.707630920E-1,9.968370667E0,9.990196064E0
7.280271875E0,-3.221301270E-1,5.682183838E-1,9.973909149E0,9.995274067E0
7.290189875E0,-2.818638611E-1,5.628295898E-1,9.962383118E0,9.982249334E0
7.300106875E0,-3.293151855E-1,5.704637146E-1,9.981992340E0,1.000370174E1
7.310024875E0,-3.421884155E-1,5.857319641E-1,9.993967438E0,1.001696361E1
7.319941875E0,-3.138972473E-1,5.782475281E-1,9.945468292E0,9.967208297E0
7.329859875E0,-2.944377136E-1,5.718109131E-1,9.970466309E0,9.991189103E0
7.339777875E0,-2.770738220E-1,5.653742981E-1,1.000519409E1,1.002498513E1
7.349694875E0,-2.788700867E-1,5.610333252E-1,1.001133133E1,1.003091630E1
7.359612875E0,-2.543211365E-1,5.667214966E-1,9.974058838E0,9.993382921E0
7.369530875E0,-2.865042114E-1,5.917195129E-1,9.963131561E0,9.984798804E0
7.379447875E0,-2.894979858E-1,5.939648438E-1,9.949958954E0,9.971874774E0
7.389365875E0,-2.359094238E-1,5.798941040E-1,9.988129578E0,1.000773016E1
7.399283875E0,-2.540217590E-1,5.915698242E-1,1.000025436E1,1.002095650E1
7.409200250E0,-2.418969727E-1,6.045927429E-1,9.992320862E0,1.001351700E1
7.419118250E0,-2.457888794E-1,5.858816528E-1,9.973609772E0,9.993826162E0
7.429036250E0,-2.427951050E-1,5.953120422E-1,9.969867554E0,9.990575806E0
7.438953250E0,-2.465373230E-1,6.221063232E-1,9.923164673E0,9.945702291E0
7.448871250E0,-2.924917603E-1,6.307882690E-1,9.972412262E0,9.996622009E0
7.458789250E0,-2.255809021E-1,6.107299805E-1,9.982291718E0,1.000350068E1
7.468707250E0,-2.251318359E-1,6.177653503E-1,9.975406036E0,9.997051764E0
7.478624250E0,-2.155517578E-1,6.210585022E-1,9.970615997E0,9.992264988E0
7.488542250E0,-2.312690735E-1,6.318360901E-1,9.957293701E0,9.980000004E0
7.498460250E0,-2.236349487E-1,6.450086975E-1,9.958491211E0,9.981863354E0
7.508377250E0,-2.194436646E-1,6.486012268E-1,9.936486969E0,9.960050821E0
7.518295250E0,-2.386038208E-1,6.541397095E-1,9.942923584E0,9.967274449E0
7.528213250E0,-2.285746765E-1,6.679110718E-1,9.966275024E0,9.991245640E0
7.538130250E0,-2.089654541E-1,6.623725891E-1,9.976304169E0,1.000045243E1
7.548048250E0,-1.914518738E-1,6.515950012E-1,9.987530823E0,1.001059448E1
7.557966250E0,-1.812730408E-1,6.554869080E-1,1.003498215E1,1.005800128E1
7.567883250E0,-1.877096558E-1,6.694079590E-1,1.001567230E1,1.003977259E1
7.577801250E0,-2.165995789E-1,6.930587769E-1,9.953102417E0,9.979553776E0
7.587719250E0,-1.887574768E-1,6.968009949E-1,9.928852844E0,9.955063024E0
7.597636250E0,-2.198927307E-1,7.200027466E-1,9.958940277E0,9.987354415E0
7.607554250E0,-2.466870117E-1,7.387138367E-1,1.000100281E1,1.003128156E1
7.617472250E0,-2.326162720E-1,7.418572998E-1,9.950108643E0,9.980437094E0
7.627389250E0,-2.210902405E-1,7.512876892E-1,9.917476501E0,9.948349323E0
7.637307250E0,-2.234852600E-1,7.629634094E-1,9.968071289E0,9.999725199E0
7.647312250E0,-2.472857666E-1,7.770341492E-1,9.957593079E0,9.990925495E0
7.657356250E0,-2.148033142E-1,7.744894409E-1,9.963281250E0,9.995646434E0
7.667399250E0,-2.062710571E-1,7.827223206E-1,9.975256348E0,1.000804382E1
7.677442250E0,-2.653981018E-1,7.964936829E-1,9.983938293E0,1.001917473E1
7.687486250E0,-2.770738220E-1,8.128097534E-1,1.001372635E1,1.005047984E1
7.697529250E0,-2.592608643E-1,8.210426331E-1,9.998158722E0,1.003516343E1
7.707573250E0,-2.344125366E-1,8.430468750E-1,9.980495453E0,1.001878070E1
7.717617250E0,-2.411485291E-1,8.505313110E-1,9.998158722E0,1.003716763E1
7.727661250E0,-2.633024597E-1,8.602610779E-1,1.002585114E1,1.006613472E1
7.737705250E0,-2.642005920E-1,8.825646973E-1,1.000788849E1,1.005020171E1
7.747749250E0,-2.772235107E-1,8.927435303E-1,1.001013382E1,1.005368703E1
7.757793250E0,-2.915936279E-1,9.177415466E-1,1.001986359E1,1.006602914E1
7.767836250E0,-2.694396973E-1,9.406439209E-1,1.002914429E1,1.007676257E1
7.777880250E0,-2.421963501E-1,9.469308472E-1,9.996362457E0,1.004403303E1
7.787924250E0,-2.877017212E-1,9.801617432E-1,1.001701950E1,1.006897060E1
7.797967250E0,-3.183879089E-1,1.016236725E0,1.002195923E1,1.007838155E1
7.808011250E0,-3.249742126E-1,1.053808594E0,1.000205063E1,1.006266056E1
7.818055250E0,-3.451821899E-1,1.064586182E0,1.008602600E1,1.014792663E1
7.828099250E0,-4.170327759E-1,1.090482330E0,1.023272095E1,1.029910899E1
7.838050250E0,-2.582130432E-1,1.107995911E0,9.918374634E0,9.983410454E0
7.847970250E0,-1.676513672E-1,1.119671631E0,9.854906616E0,9.919725599E0
7.857888250E0,-2.317181396E-1,1.145717468E0,1.002001328E1,1.008796450E1
7.867806250E0,-2.466870117E-1,1.226399689E0,9.810000000E0,9.889439351E0
7.877723250E0,-1.972897339E-1,1.237626343E0,9.827214203E0,9.906804792E0
7.887641250E0,-5.912704468E-2,1.285975800E0,9.422605591E0,9.510138058E0
7.897559250E0,2.095642090E-2,1.322200470E0,9.143885193E0,9.239009128E0
7.907476250E0,-2.439926147E-2,1.277144165E0,9.598938904E0,9.683559295E0
7.917394250E0,-1.507365417E-1,1.312171326E0,9.788893890E0,9.877598832E0
7.927312250E0,-2.406994629E-1,1.338815918E0,9.880952454E0,9.974145862E0
7.937229250E0,-1.875599670E-1,1.315464478E0,9.953850861E0,1.004214979E1
7.947147250E0,-1.935475159E-1,1.312919769E0,9.971364441E0,1.005929062E1
7.957065250E0,-1.246907043E-1,1.316362610E0,9.914482727E0,1.000226605E1
7.966983250E0,-1.957928467E-1,1.321152649E0,9.940678253E0,1.002999817E1
7.976900250E0,-2.272274780E-1,1.334474945E0,1.005040009E1,1.014115366E1
7.986818250E0,-2.085163879E-1,1.317410431E0,1.005204666E1,1.014015244E1
7.996736250E0,-1.532812500E-1,1.348545685E0,9.922416229E0,1.001480976E1
8.006653250E0,-2.025288391E-1,1.355581055E0,9.983938293E0,1.007758115E1
8.016571250E0,-2.728825378E-1,1.395547943E0,1.002450394E1,1.012485546E1
8.026489250E0,-2.853067017E-1,1.405128021E0,1.004291565E1,1.014474935E1
8.036406250E0,-1.474433899E-1,1.393751678E0,1.003049149E1,1.012793378E1
8.046324250E0,-1.504371643E-1,1.433718567E0,9.844578094E0,9.949567736E0
8.056242250E0,-1.871109009E-1,1.452429657E0,9.892628174E0,1.000043272E1
8.066160250E0,-1.686991882E-1,1.445094910E0,9.938881989E0,1.004480631E1
8.076077250E0,-4.361929321E-1,1.550475769E0,9.755064240E0,9.887139005E0
8.085995250E0,-2.005828857E-1,1.525627441E0,9.907746735E0,1.002652572E1
8.095913250E0,-1.676513672E-2,1.500030670E0,9.838590546E0,9.952298077E0
8.105830250E0,-8.666976929E-2,1.553319855E0,9.405241699E0,9.533041783E0
8.115748250E0,9.355545044E-2,1.518592072E0,9.402996368E0,9.525293445E0
8.125666250E0,8.128097534E-2,1.513951721E0,9.761351166E0,9.878392227E0
8.135583250E0,-8.532257080E-2,1.538350983E0,9.745633850E0,9.866670301E0
8.145501250E0,-1.131646729E-1,1.546733551E0,9.829908600E0,9.951497073E0
8.155419250E0,-7.933502197E-2,1.543590088E0,9.934541016E0,1.005405737E1
8.165337250E0,-1.463955688E-1,1.554068298E0,9.973160706E0,1.009457747E1
8.175254250E0,-1.323248291E-1,1.569785614E0,1.000324814E1,1.012653495E1
8.185172250E0,-1.755848694E-1,1.592538300E0,1.002106110E1,1.014833355E1
8.195090250E0,-3.296145630E-1,1.595681763E0,1.023152344E1,1.036044970E1
8.205007250E0,-1.023870850E-1,1.553319855E0,1.000564316E1,1.012601504E1
8.214925250E0,2.844085693E-1,1.520088959E0,9.722282410E0,9.844507805E0
8.224843250E0,2.112107849E-1,1.556014252E0,9.757908325E0,9.883449055E0
8.234761250E0,-6.571334839E-2,1.609004059E0,9.955647125E0,1.008504447E1
8.244678250E0,-1.210981750E-1,1.642833710E0,9.937834167E0,1.007343612E1
8.254596250E0,-3.041674805E-1,1.698218536E0,1.004231689E1,1.018943535E1
8.264514250E0,-4.269122314E-1,1.706152039E0,1.042537033E1,1.057267967E1
8.274431250E0,-1.796264648E-3,1.638193359E0,1.022044647E1,1.035090367E1
8.284349250E0,2.953358459E-1,1.613494720E0,9.726473694E0,9.863816654E0
8.294267250E0,1.622625732E-1,1.642983398E0,9.829459534E0,9.967145946E0
8.304185250E0,1.049317932E-1,1.677112427E0,9.936786346E0,1.007786881E1
8.314102250E0,-1.269360352E-1,1.763632507E0,1.002674927E1,1.018146420E1
8.324020250E0,-3.854484558E-1,1.808239746E0,1.065948349E1,1.081863622E1
8.333938250E0,-1.221459961E-1,1.794618073E0,1.068747528E1,1.083779044E1
8.343855250E0,1.121168518E-1,1.768123169E0,1.029514114E1,1.044647122E1
8.353773250E0,8.681945801E-2,1.814227295E0,1.051413574E1,1.066986451E1
8.363691250E0,2.020797729E-2,1.823208618E0,1.088985443E1,1.104144137E1
8.373609250E0,1.793270874E-1,1.838925934E0,1.064002396E1,1.079925537E1
8.383526250E0,3.276686096E-1,1.875150604E0,1.013213013E1,1.030939462E1
8.393444250E0,3.722758484E-1,1.955234070E0,9.794881439E0,9.995060379E0
8.403362250E0,3.694317627E-1,2.054028625E0,9.619895325E0,9.843673069E0
8.413279375E0,3.851490784E-1,2.096240845E0,9.508227539E0,9.744175513E0
8.423197375E0,4.613406372E-1,2.156415710E0,9.529183960E0,9.781017884E0
8.433115375E0,4.334985352E-1,2.227817230E0,9.576186218E0,9.841464986E0
8.443033375E0,3.580554199E-1,2.301164703E0,9.503287811E0,9.784479644E0
8.452950375E0,3.451821899E-1,2.360740814E0,9.498797150E0,9.793844762E0
8.462868375E0,3.061134338E-1,2.414479065E0,9.627679138E0,9.930539773E0
8.472786375E0,2.186952209E-1,2.484234009E0,9.704918518E0,1.002021405E1
8.482704375E0,1.363664246E-1,2.508633270E0,9.751771088E0,1.007019742E1
8.492621375E0,1.122665405E-1,2.612966309E0,9.807155914E0,1.014990167E1
8.502539375E0,1.029858398E-1,2.665207672E0,9.637408905E0,9.999679416E0
8.512457375E0,1.016386414E-1,2.728526001E0,9.391919403E0,9.780763499E0
8.522374375E0,1.089733887E-1,2.816093903E0,9.324409790E0,9.740989580E0
8.532292375E0,1.207987976E-1,2.916235657E0,9.317374420E0,9.763835765E0
8.542210375E0,2.948867798E-2,2.854863281E0,9.272018738E0,9.701620762E0
8.552128375E0,-4.191284180E-2,2.940036163E0,9.307345276E0,9.760750248E0
8.562045375E0,-1.425036621E-1,3.029250641E0,9.402846680E0,9.879787064E0
8.571963375E0,-2.468367004E-1,3.081641693E0,9.469308472E0,9.961187018E0
8.581881375E0,-3.067121887E-1,3.152145081E0,9.423803101E0,9.941738070E0
8.591799375E0,-3.201841736E-1,3.278931427E0,9.498048706E0,1.005320041E1
8.601716375E0,-3.935316467E-1,3.249143372E0,9.475296021E0,1.002462141E1
8.611634375E0,-4.460723877E-1,3.323089600E0,9.502239990E0,1.007643141E1
8.621552375E0,-4.403842163E-1,3.358266449E0,9.532327423E0,1.011618297E1
8.631470375E0,-4.532574463E-1,3.370540924E0,9.469607849E0,1.006178221E1
8.641387375E0,-4.439767456E-1,3.486100616E0,9.432185669E0,1.006559185E1
8.651305375E0,-4.132905579E-1,3.507655792E0,9.455237732E0,1.009336311E1
8.661223375E0,-3.941304016E-1,3.536695404E0,9.459728394E0,1.010692903E1
8.671140375E0,-4.700225830E-1,3.628604279E0,9.430539093E0,1.011547121E1
8.681058375E0,-5.113366699E-1,3.637136536E0,9.310638428E0,1.000890680E1
8.690976375E0,-4.556524658E-1,3.670816498E0,9.268426208E0,9.979290421E0
8.700894375E0,-4.275109863E-1,3.740870819E0,9.182055817E0,9.924063137E0
8.710811375E0,-4.432283020E-1,3.791615295E0,9.129814453E0,9.895772321E0
8.720729375E0,-4.676275635E-1,3.832630005E0,9.145082703E0,9.926744982E0
8.730647375E0,-4.447251892E-1,3.893104248E0,9.176517334E0,9.978101601E0
8.740565375E0,-4.755610657E-1,3.944447479E0,9.195228424E0,1.001683832E1
8.750482375E0,-5.316943359E-1,3.967499542E0,9.234297180E0,1.006459119E1
8.760400375E0,-5.492079163E-1,4.023183746E0,9.301956482E0,1.014958281E1
8.770318375E0,-5.162763977E-1,4.073030090E0,9.363628235E0,1.022416985E1
8.780236375E0,-5.206173706E-1,4.146527252E0,9.395960999E0,1.028342422E1
8.790153375E0,-5.451663208E-1,4.177512817E0,9.357191620E0,1.026186409E1
8.800071375E0,-5.569917297E-1,4.222569122E0,9.333091736E0,1.025899270E1
8.809989375E0,-5.287005615E-1,4.289180603E0,9.298663330E0,1.025386436E1
8.819907375E0,-5.149291992E-1,4.328698425E0,9.345216522E0,1.031192775E1
8.829824375E0,-4.703219604E-1,4.353546753E0,9.385183411E0,1.035645884E1
8.839742375E0,-4.089495850E-1,4.401297455E0,9.297016754E0,1.029432754E1
8.849660375E0,-3.508703613E-1,4.455484772E0,9.163045349E0,1.019489356E1
8.859578375E0,-3.209326172E-1,4.490960999E0,9.039402466E0,1.009863978E1
8.869495375E0,-2.915936279E-1,4.546495514E0,8.893306274E0,9.992324294E0
8.879413375E0,-2.414479065E-1,4.602179718E0,8.746461639E0,9.886300949E0
8.889331375E0,-1.969903564E-1,4.699776764E0,8.678652649E0,9.871459802E0
8.899249375E0,-2.243833923E-1,4.790787506E0,8.626261597E0,9.869872439E0
8.909166375E0,-1.907034302E-1,4.847968597E0,8.607849884E0,9.881004349E0
8.919084375E0,-1.438508606E-1,4.913382568E0,8.562494202E0,9.873111378E0
8.929002375E0,-1.260379028E-1,4.967420197E0,8.516689453E0,9.860281345E0
8.938920375E0,-1.347198486E-1,5.028942261E0,8.451275482E0,9.835266492E0
8.948837375E0,-1.508862305E-1,5.063819733E0,8.455616455E0,9.857103356E0
8.958755375E0,-1.835183716E-1,5.229525146E0,8.475674744E0,9.960857122E0
8.968673375E0,-2.396516418E-1,5.302124176E0,8.496331787E0,1.001786442E1
8.978591375E0,-3.026705933E-1,5.375471649E0,8.478518829E0,1.004353456E1
8.988508375E0,-3.406915283E-1,5.461842041E0,8.490194550E0,1.010104909E1
8.998426375E0,-3.820056152E-1,5.529800720E0,8.509055328E0,1.015522756E1
9.008344375E0,-3.978726196E-1,5.608536987E0,8.492589569E0,1.018518863E1
9.018262375E0,-3.821553040E-1,5.625302124E0,8.386909332E0,1.010595442E1
9.028179375E0,-3.454815674E-1,5.744753723E0,8.297994232E0,1.009842865E1
9.038097375E0,-2.478845215E-1,5.800288239E0,8.264314270E0,1.009968716E1
9.048015375E0,-2.128573608E-1,5.837710419E0,8.184380493E0,1.005526008E1
9.057933375E0,-1.621128845E-1,5.842650146E0,8.119116211E0,1.000414361E1
9.067850375E0,-2.353106689E-1,5.868845673E0,8.040080566E0,9.956988307E0
9.077768375E0,-3.421884155E-1,5.960604858E0,7.974666595E0,9.961988280E0
9.087686375E0,-3.749702454E-1,6.104904785E0,8.004754028E0,1.007405341E1
9.097604375E0,-4.029620361E-1,6.244414673E0,8.036637726E0,1.018541305E1
9.107521375E0,-4.764591980E-1,6.331533508E0,8.012388153E0,1.022319392E1
9.117439375E0,-5.224136353E-1,6.373895416E0,7.929161224E0,1.018680796E1
9.127357375E0,-5.272036743E-1,6.409820709E0,7.784262543E0,1.009744961E1
9.137275375E0,-4.589456177E-1,6.442901917E0,7.710765381E0,1.005870364E1
9.147193375E0,-4.614903259E-1,6.493646393E0,7.638465729E0,1.003626302E1
9.157110375E0,-4.793032837E-1,6.509812775E0,7.535180511E0,9.969269750E0
9.167028375E0,-4.647834778E-1,6.533313904E0,7.454947357E0,9.923530337E0
9.176946375E0,-4.438270569E-1,6.588848419E0,7.414082336E0,9.928671756E0
9.186864375E0,-4.540058899E-1,6.725663910E0,7.413782959E0,1.002022226E1
9.196781375E0,-4.855902100E-1,6.908882904E0,7.362140350E0,1.010789649E1
9.206699375E0,-5.004093933E-1,7.053033142E0,7.332801361E0,1.018654318E1
9.216617375E0,-5.369334412E-1,7.206913147E0,7.303612061E0,1.027475760E1
9.226535375E0,-5.771997070E-1,7.323221283E0,7.261399841E0,1.032911696E1
9.236452375E0,-5.637277222E-1,7.351811829E0,7.166197815E0,1.028208720E1
9.246370375E0,-5.625302124E-1,7.332202606E0,7.091353455E0,1.021591548E1
9.256288375E0,-5.884263611E-1,7.302564240E0,7.034172363E0,1.015643987E1
9.266206375E0,-6.020480347E-1,7.280559998E0,6.911128235E0,1.005647598E1
9.276124375E0,-5.971083069E-1,7.285799103E0,6.730603638E0,9.936822038E0
9.286041375E0,-5.677693176E-1,7.346273346E0,6.636449432E0,9.916277282E0
9.295959375E0,-5.358856201E-1,7.428602142E0,6.561754761E0,9.926123550E0
9.305877375E0,-5.304968262E-1,7.485184479E0,6.465355225E0,9.905060916E0
9.315795375E0,-5.177732849E-1,7.513176270E0,6.396498413E0,9.880845044E0
9.325712375E0,-4.694238281E-1,7.582182770E0,6.338718567E0,9.893897481E0
9.335630375E0,-4.391867065E-1,7.615413666E0,6.196514282E0,9.827726060E0
9.345548375E0,-4.257147217E-1,7.676636353E0,6.102509766E0,9.815936234E0
9.355466375E0,-4.067042542E-1,7.698790283E0,6.037395172E0,9.792186714E0
9.365383375E0,-3.917353821E-1,7.708669739E0,5.935756531E0,9.737055579E0
9.375301375E0,-4.025129700E-1,7.837102661E0,5.851182404E0,9.788694005E0
9.385219375E0,-3.806584167E-1,7.970774689E0,5.795947266E0,9.862613988E0
9.395137375E0,-3.234773254E-1,8.007747803E0,5.661227417E0,9.812143411E0
9.405055375E0,-2.353106689E-1,8.028704224E0,5.586832123E0,9.784076645E0
9.414972375E0,-1.999841309E-1,8.030500488E0,5.519322510E0,9.746376389E0
9.424890375E0,-1.874102783E-1,8.008346558E0,5.405858459E0,9.663955861E0
9.434808375E0,-1.820214844E-1,8.039032745E0,5.266947327E0,9.612487370E0
9.444726375E0,-1.812730408E-1,8.051905975E0,5.102289734E0,9.534118222E0
9.454643375E0,-1.899549866E-1,8.105943604E0,4.989274750E0,9.520255623E0
9.464561375E0,-1.523831177E-1,8.180039520E0,4.842130737E0,9.506970982E0
9.474479375E0,-1.347198486E-1,8.285570068E0,4.664150848E0,9.509107420E0
9.484397375E0,-4.924758911E-2,8.408165131E0,4.560117188E0,9.565267113E0
9.494315375E0,-2.724334717E-2,8.484207001E0,4.436923370E0,9.574382467E0
9.504232375E0,-7.244934082E-2,8.505163422E0,4.283492432E0,9.523201203E0
9.514150375E0,-1.146615601E-1,8.529412994E0,4.252207489E0,9.531280178E0
9.524068375E0,-1.371148682E-1,8.546028442E0,4.249213715E0,9.545114971E0
9.533986375E0,-1.625619507E-1,8.579858093E0,4.095184021E0,9.508465883E0
9.543904375E0,-2.782713318E-1,8.702153778E0,3.935915222E0,9.554912032E0
9.553821375E0,-3.155438232E-1,8.775800629E0,3.792663116E0,9.565486819E0
9.563739375E0,-3.264710999E-1,8.908574524E0,3.625460815E0,9.623577794E0
9.573657375E0,-3.101550293E-1,9.022188263E0,3.574566650E0,9.709459508E0
9.583575375E0,-3.314108276E-1,9.046587524E0,3.460354156E0,9.691472017E0
9.593492375E0,-3.664379883E-1,9.041049042E0,3.333867188E0,9.643107124E0
9.603410375E0,-4.023632813E-1,9.071136475E0,3.258274384E0,9.646956261E0
9.613328375E0,-4.448748779E-1,9.117989044E0,3.184028778E0,9.668178584E0
9.623246375E0,-4.571493530E-1,9.217831421E0,3.103795624E0,9.737091399E0
9.633164375E0,-5.117857361E-1,9.303153992E0,2.956052856E0,9.774909070E0
9.643081375E0,-5.571414185E-1,9.078770599E0,3.114573212E0,9.614314767E0
9.652999375E0,-7.472460938E-1,9.220226440E0,2.632425842E0,9.617724167E0
9.662917375E0,-6.026467896E-1,9.491312714E0,2.461481323E0,9.823802242E0
9.672835375E0,-5.786965942E-1,9.403445435E0,2.511926422E0,9.750356411E0
9.682753375E0,-6.532415771E-1,9.402397614E0,2.406246185E0,9.727375090E0
9.692670375E0,-7.105723572E-1,9.432185669E0,2.372865601E0,9.752001370E0
9.702588375E0,-7.195536804E-1,9.396260376E0,2.321372681E0,9.705474624E0
9.712506375E0,-7.791297913E-1,9.446555786E0,2.068548431E0,9.701719026E0
9.722424375E0,-8.153544617E-1,9.488318939E0,1.909429321E0,9.712822428E0
9.732342375E0,-8.146060181E-1,9.575886841E0,1.805245972E0,9.778553307E0
9.742259375E0,-7.804769897E-1,9.638756104E0,1.609453125E0,9.803321015E0
9.752177375E0,-7.831713867E-1,9.652976532E0,1.522034912E0,9.803565863E0
9.762095375E0,-8.069718933E-1,9.602980499E0,1.510658569E0,9.754513182E0
9.772013375E0,-8.598120117E-1,9.551936646E0,1.461111603E0,9.701217320E0
9.781930375E0,-8.800199890E-1,9.506131897E0,1.375190277E0,9.645316331E0
9.791848375E0,-8.554710388E-1,9.484876099E0,1.314865723E0,9.613718176E0
9.801766375E0,-8.253836060E-1,9.479936371E0,1.290167084E0,9.602863260E0
9.811684375E0,-8.093669128E-1,9.449848938E0,1.256187744E0,9.567273770E0
9.821602375E0,-7.979905701E-1,9.423952789E0,1.178499298E0,9.530820307E0
9.831520375E0,-7.839198303E-1,9.421857147E0,1.083746338E0,9.516324318E0
9.841437375E0,-7.741900635E-1,9.399703217E0,1.012494507E0,9.485722742E0
9.851355375E0,-8.132588196E-1,9.358389130E0,9.862989807E-1,9.445296326E0
9.861273375E0,-8.487350464E-1,9.354048157E0,9.990225220E-1,9.445454679E0
9.871191375E0,-8.931925964E-1,9.443112946E0,1.022373962E0,9.540200398E0
9.881109375E0,-9.458830261E-1,9.496701508E0,1.054107971E0,9.601727857E0
9.891026375E0,-9.756710815E-1,9.516909485E0,1.088087311E0,9.628469982E0
9.900944375E0,-1.028211823E0,9.557624817E0,1.131497040E0,9.679137216E0
9.910862375E0,-1.065933380E0,9.574090576E0,1.139131165E0,9.700363093E0
9.920780375E0,-1.065334625E0,9.487869873E0,1.142873383E0,9.615652456E0
9.930698375E0,-1.084794159E0,9.526040497E0,1.121767273E0,9.653009258E0
9.940615375E0,-1.087937622E0,9.601034546E0,1.067879333E0,9.721308497E0
9.950533375E0,-1.088087311E0,9.649683380E0,1.031355286E0,9.765450172E0
9.960451375E0,-1.091829529E0,9.702673187E0,1.001267853E0,9.815115690E0
9.970369375E0,-1.107247467E0,9.719588013E0,1.006806335E0,9.834126656E0
9.980287375E0,-1.114582214E0,9.720935211E0,9.945318604E-1,9.835037799E0
9.990204375E0,-1.101110229E0,9.721983032E0,9.815089417E-1,9.833247562E0
1.000012238E1,-1.071172485E0,9.718390503E0,1.001267853E0,9.828380425E0
1.001004038E1,-1.061592407E0,9.698781281E0,1.015039215E0,9.809364983E0
1.001995837E1,-1.090033264E0,9.698481903E0,1.026714935E0,9.813402432E0
1.002987638E1,-1.137185211E0,9.703870697E0,1.055904236E0,9.827167978E0
1.003979338E1,-1.143921204E0,9.700278168E0,1.040486298E0,9.822757453E0
1.004971138E1,-1.130598907E0,9.645791473E0,9.523196411E-1,9.758404569E0
1.005962937E1,-1.101559296E0,9.615404663E0,8.909472656E-1,9.719219452E0
1.006954738E1,-1.056203613E0,9.643246765E0,8.922944641E-1,9.741866539E0
1.007946538E1,-1.001866608E0,9.681716766E0,8.776249695E-1,9.772901403E0
1.008938238E1,-9.669891357E-1,9.708660736E0,8.536747742E-1,9.793973754E0
1.009930037E1,-9.765692139E-1,9.693093109E0,8.795709229E-1,9.781788510E0
1.010921838E1,-9.987231445E-1,9.639504547E0,8.693920898E-1,9.730022530E0
1.011913638E1,-1.003812561E0,9.626930695E0,8.539741516E-1,9.716723013E0
1.012905438E1,-1.021475830E0,9.672735443E0,8.387059021E-1,9.762614989E0
1.013897137E1,-1.041983185E0,9.674681396E0,8.264314270E-1,9.765663213E0
1.014888938E1,-1.091679840E0,9.658814392E0,8.381071472E-1,9.756376578E0
1.015880738E1,-1.143023071E0,9.680818634E0,8.352630615E-1,9.783783294E0
1.016872538E1,-1.158890076E0,9.717492371E0,8.544232178E-1,9.823579959E0
1.017864338E1,-1.142274628E0,9.724976807E0,8.499325562E-1,9.828649478E0
1.018856138E1,-1.132694550E0,9.687105560E0,8.446934509E-1,9.789612766E0
1.019847838E1,-1.147813110E0,9.655820618E0,8.726852417E-1,9.762885141E0
1.020839638E1,-1.122216339E0,9.630972290E0,8.743318176E-1,9.735473943E0
1.021831438E1,-1.076561279E0,9.608818359E0,8.750802612E-1,9.708457134E0
1.022823238E1,-1.063538361E0,9.641001434E0,8.551716614E-1,9.737111536E0
1.023815038E1,-1.060544586E0,9.636361084E0,8.535250854E-1,9.732045768E0
1.024806738E1,-1.109941864E0,9.591005402E0,7.982899475E-1,9.687962758E0
1.025798538E1,-1.121018829E0,9.667795715E0,7.899073792E-1,9.764574280E0
1.026790338E1,-1.121467896E0,9.695488129E0,8.117619324E-1,9.793831616E0
1.027782138E1,-1.140777740E0,9.702523499E0,8.512797546E-1,9.806376156E0
1.028773938E1,-1.132993927E0,9.702523499E0,8.695417786E-1,9.807076036E0
1.029765638E1,-1.110989685E0,9.688752136E0,8.409512329E-1,9.788432715E0
1.030757438E1,-1.082548828E0,9.644743652E0,8.159532166E-1,9.739546793E0
1.031749238E1,-1.051712952E0,9.617200928E0,7.970924377E-1,9.707317352E0
1.032741038E1,-1.012344818E0,9.608369293E0,7.789801025E-1,9.692905267E0
1.033732838E1,-9.773176575E-1,9.582772522E0,7.656578064E-1,9.662862458E0
1.034724638E1,-9.491761780E-1,9.577982483E0,7.991880798E-1,9.658021819E0
1.035716338E1,-9.539662170E-1,9.611512756E0,8.080197144E-1,9.692477747E0
1.036708137E1,-9.939331055E-1,9.630972290E0,8.372090149E-1,9.718253403E0
1.037699938E1,-1.041234741E0,9.667196960E0,8.858578491E-1,9.763381125E0
1.038691738E1,-1.113684082E0,9.712702332E0,9.054670715E-1,9.818184630E0
1.039683538E1,-1.196761322E0,9.753717041E0,9.198371887E-1,9.869819362E0
1.040675338E1,-1.250649261E0,9.792336731E0,9.385482788E-1,9.916393251E0
1.041667075E1,-1.266067200E0,9.825567627E0,9.809101868E-1,9.955244354E0
1.042658875E1,-1.223256226E0,9.841135254E0,1.051712952E0,9.972482089E0
1.043650675E1,-1.186732178E0,9.859546967E0,1.138682098E0,9.995778938E0
1.044642475E1,-1.135538635E0,9.848470001E0,1.191971283E0,9.985119173E0
1.045634275E1,-1.101409607E0,9.811047821E0,1.254990234E0,9.952123540E0
1.046625975E1,-1.060245209E0,9.762548676E0,1.304986267E0,9.906284152E0
1.047617775E1,-1.012943573E0,9.689051514E0,1.343605957E0,9.834076006E0
1.048609575E1,-9.921368408E-1,9.644444275E0,1.360969849E0,9.790397327E0
1.049601375E1,-9.924362183E-1,9.665999451E0,1.364861755E0,9.812202741E0
1.050593175E1,-9.891430664E-1,9.715845795E0,1.356179810E0,9.859781295E0
1.051584975E1,-9.538165283E-1,9.714348907E0,1.298849030E0,9.847098530E0
1.052576675E1,-9.038204956E-1,9.665700073E0,1.248104553E0,9.787768610E0
1.053568475E1,-8.795709229E-1,9.647737427E0,1.227597198E0,9.765217732E0
1.054560275E1,-8.610095215E-1,9.637259216E0,1.206042023E0,9.750519984E0
1.055552075E1,-8.794212341E-1,9.652826843E0,1.213825836E0,9.768511705E0
1.056543875E1,-8.904981995E-1,9.668244781E0,1.212927704E0,9.784637848E0
1.057535675E1,-8.946894836E-1,9.694290619E0,1.204994202E0,9.809778331E0
1.058527375E1,-8.795709229E-1,9.726623383E0,1.199306030E0,9.839673896E0
1.059519175E1,-8.755293274E-1,9.740843811E0,1.187031555E0,9.851884777E0
1.060510975E1,-8.890013123E-1,9.746382294E0,1.200054474E0,9.860143097E0
1.061502775E1,-9.051676941E-1,9.737999725E0,1.205293579E0,9.853968734E0
1.062494575E1,-9.090596008E-1,9.747430115E0,1.219663696E0,9.865412446E0
1.063486275E1,-9.029223633E-1,9.743238831E0,1.241518250E0,9.863434456E0
1.064478075E1,-8.904981995E-1,9.762548676E0,1.271755371E0,9.885226624E0
1.065469875E1,-8.565188599E-1,9.781110077E0,1.296304321E0,9.903743928E0
1.066461675E1,-8.397537231E-1,9.773176575E0,1.309776306E0,9.896245786E0
1.067453475E1,-8.375083923E-1,9.747579803E0,1.329834595E0,9.873458988E0
1.068445275E1,-8.511300659E-1,9.748627625E0,1.347797241E0,9.878092951E0
1.069436975E1,-8.493338013E-1,9.729617157E0,1.377285919E0,9.863251717E0
1.070428775E1,-8.482859802E-1,9.730066223E0,1.384321289E0,9.864589360E0
1.071420575E1,-8.443940735E-1,9.727072449E0,1.379082184E0,9.860568312E0
1.072412375E1,-8.336164856E-1,9.722731476E0,1.361418915E0,9.852912527E0
1.073404175E1,-8.204438782E-1,9.722881165E0,1.380728760E0,9.854641455E0
1.074395975E1,-7.993377686E-1,9.728868713E0,1.388512573E0,9.859908442E0
1.075387675E1,-7.723937988E-1,9.761650543E0,1.377884674E0,9.888628807E0
1.076379475E1,-7.554789734E-1,9.830207977E0,1.405128021E0,9.958821321E0
1.077371275E1,-7.376660156E-1,9.880802765E0,1.483864288E0,1.001879572E1
1.078363075E1,-7.479945374E-1,9.882149963E0,1.406175842E0,1.000968103E1
1.079354875E1,-8.027806091E-1,9.898466034E0,1.384021912E0,1.002694386E1
1.080346675E1,-8.795709229E-1,9.905651093E0,1.386566620E0,1.004082345E1
1.081338375E1,-9.029223633E-1,9.780960388E0,1.260528717E0,9.903099896E0
1.082330175E1,-6.879693604E-1,9.619146881E0,1.197809143E0,9.717820502E0
1.083321975E1,-6.056405640E-1,9.593550110E0,1.098715210E0,9.675235362E0
1.084313775E1,-6.765930176E-1,9.663155365E0,9.915380859E-1,9.737427663E0
1.085305575E1,-7.307803345E-1,9.659413147E0,9.809101868E-1,9.736554166E0
1.086297375E1,-7.725434875E-1,9.641151123E0,9.252259827E-1,9.716206129E0
1.087289175E1,-8.502319336E-1,9.674531708E0,8.913963318E-1,9.752643002E0
1.088280875E1,-9.491761780E-1,9.802365875E0,1.009201355E0,9.899787853E0
1.089272675E1,-9.524693298E-1,9.822723541E0,1.202599182E0,9.941797644E0
1.090264475E1,-8.824150085E-1,9.856702881E0,1.286275177E0,9.979366301E0
1.091256275E1,-8.378077698E-1,9.865384827E0,1.226848755E0,9.976617538E0
1.092248075E1,-8.331674194E-1,9.814790039E0,1.237626343E0,9.927536977E0
1.093239875E1,-8.574169922E-1,9.803563385E0,1.298250275E0,9.926251695E0
1.094231575E1,-8.493338013E-1,9.751621399E0,1.269210663E0,9.870480410E0
1.095223375E1,-7.592211914E-1,9.695338440E0,1.191073151E0,9.797686438E0
1.096215175E1,-7.101232910E-1,9.649982758E0,1.052760773E0,9.733177670E0
1.097206975E1,-7.182064819E-1,9.604477386E0,8.753796387E-1,9.670992500E0
1.098198775E1,-7.457492065E-1,9.624835052E0,7.857160950E-1,9.685604857E0
1.099190575E1,-6.777905273E-1,9.588161316E0,6.481521606E-1,9.633916060E0
1.100182275E1,-6.744973755E-1,9.608518982E0,5.084925842E-1,9.645576626E0
1.101174075E1,-6.459068298E-1,9.739047546E0,4.528083801E-1,9.770940496E0
1.102165875E1,-6.138734436E-1,9.952353973E0,4.812492371E-1,9.982874889E0
1.103157675E1,-5.773493958E-1,1.000773880E1,5.507048035E-1,1.003949421E1
1.104149475E1,-5.427713013E-1,9.863588562E0,6.081852722E-1,9.897215231E0
1.105141275E1,-4.864883423E-1,9.620793457E0,4.933740234E-1,9.645711771E0
1.106132975E1,-4.278103638E-1,9.536219330E0,5.866300964E-1,9.563819095E0
1.107124775E1,-2.282752991E-1,9.470805359E0,3.710783386E-1,9.480820792E0
1.108116575E1,8.816665649E-2,9.338779907E0,-2.627037048E-1,9.342890171E0
1.109108375E1,2.269281006E-1,9.288484497E0,-5.468128967E-1,9.307332860E0
1.110100175E1,3.113525391E-1,9.232650604E0,-8.605604553E-1,9.277895337E0
1.111091975E1,1.546284485E-1,9.201964417E0,-1.115630035E0,9.270635871E0
1.112083775E1,1.257385254E-2,9.220076752E0,-1.369951172E0,9.321305682E0
1.113075475E1,-5.743556213E-1,9.242230682E0,-2.323168945E-1,9.262973794E0
1.114067275E1,-8.327183533E-1,8.821006622E0,3.243754578E-1,8.866160224E0
1.115059075E1,-3.927832031E-1,8.418942719E0,-8.803193665E-1,8.473950515E0
1.116050875E1,-5.924679565E-1,8.875044250E0,-6.128256226E-1,8.915883802E0
1.117042675E1,-4.266128540E-1,9.283095703E0,-4.869374084E-1,9.305641966E0
1.118034475E1,-5.893244934E-1,9.564061432E0,-6.370751953E-1,9.603355624E0
1.119026175E1,-7.479945374E-1,9.916877747E0,-6.478527832E-1,9.966126293E0
1.120017975E1,-9.244775391E-1,1.018841309E1,-6.204597473E-1,1.024906777E1
1.121009775E1,-1.231040039E0,1.056143738E1,-9.618997192E-1,1.067636034E1
1.122001575E1,-1.315165100E0,1.090227859E1,-1.485211487E0,1.108129916E1
1.122993375E1,-1.089135132E0,1.052775742E1,-1.590442657E0,1.070277531E1
1.123985175E1,-8.854087830E-1,1.016940262E1,-1.531914368E0,1.032218291E1
1.124976975E1,-6.776408386E-1,9.799072723E0,-1.486408997E0,9.934305967E0
1.125968675E1,-5.490582275E-1,9.565857697E0,-1.698517914E0,9.730984612E0
1.126960475E1,-4.092489624E-1,9.445657654E0,-1.747765503E0,9.614708393E0
1.127952275E1,-3.299139404E-1,9.361233215E0,-1.764830017E0,9.531849532E0
1.128944075E1,-2.926414490E-1,9.320068817E0,-1.862427063E0,9.508835698E0
1.129935875E1,-2.157014465E-1,9.309291229E0,-1.937121735E0,9.511144564E0
1.130927675E1,-1.597178650E-1,9.226812744E0,-2.020797729E0,9.446862266E0
1.131919475E1,-1.122665405E-1,9.035660248E0,-2.105521545E0,9.278414782E0
1.132911175E1,-7.170089722E-2,8.859776001E0,-2.243833923E0,9.139779127E0
1.133902975E1,-3.517684937E-2,8.774752808E0,-2.426603851E0,9.104171049E0
1.134894775E1,5.658233643E-2,8.692424011E0,-2.566263428E0,9.063506205E0
1.135886575E1,1.166075134E-1,8.636290741E0,-2.693648529E0,9.047367433E0
1.136878375E1,1.157093811E-1,8.676407318E0,-2.883004761E0,9.143585132E0
1.137870175E1,1.826202393E-1,8.662336578E0,-3.061882782E0,9.189371650E0
1.138861875E1,1.716929626E-1,8.606951752E0,-3.297642517E0,9.218651913E0
1.139853675E1,1.001417542E-1,8.435408478E0,-3.512745209E0,9.138135667E0
1.140845475E1,1.916015625E-2,8.299491119E0,-3.725153503E0,9.097180254E0
1.141837229E1,-4.685256958E-2,8.270451508E0,-3.905977478E0,9.146541607E0
1.142829029E1,-3.173400879E-2,8.230634308E0,-4.058061218E0,9.176721038E0
1.143820829E1,-6.017486572E-2,8.152496796E0,-4.194727020E0,9.168563671E0
1.144812629E1,-9.056167603E-2,8.118367767E0,-4.441563721E0,9.254381930E0
1.145804329E1,-9.175918579E-2,8.046217804E0,-4.668641510E0,9.303023930E0
1.146796129E1,-8.936416626E-2,7.906707916E0,-4.877157898E0,9.290354417E0
1.147787929E1,-1.511856079E-1,7.914192352E0,-5.107977905E0,9.420654752E0
1.148779729E1,-2.206411743E-1,7.862849121E0,-5.303321686E0,9.486743368E0
1.149771529E1,-2.522254944E-1,7.616611176E0,-5.387895813E0,9.333049062E0
1.150763329E1,-2.944377136E-1,7.334747314E0,-5.523364105E0,9.186553367E0
1.151755129E1,-2.956352234E-1,7.096742249E0,-5.629942474E0,9.063520452E0
1.152746829E1,-3.077600098E-1,6.846911774E0,-5.768554230E0,8.958299781E0
1.153738629E1,-3.309617615E-1,6.589147797E0,-5.991291046E0,8.911900626E0
1.154730429E1,-2.706372070E-1,6.463259583E0,-6.271208954E0,9.009718679E0
1.155722229E1,-3.487747192E-2,6.385271759E0,-6.449039154E0,9.075407312E0
1.156714029E1,1.615141296E-1,6.341263275E0,-6.704857178E0,9.229995477E0
1.157705829E1,2.354603577E-1,6.294111328E0,-6.977590027E0,9.399895828E0
1.158697629E1,2.842588806E-1,6.223607941E0,-7.130272522E0,9.468626360E0
1.159689329E1,3.507206726E-1,6.172115021E0,-7.294481049E0,9.561770892E0
1.160681129E1,3.411405945E-1,5.982758789E0,-7.403903503E0,9.525101927E0
1.161672929E1,2.674937439E-1,5.742658081E0,-7.557334442E0,9.495418822E0
1.162664729E1,2.424957275E-1,5.555397491E0,-7.708819427E0,9.505111384E0
1.163656529E1,2.353106689E-1,5.387446747E0,-7.823780365E0,9.502183579E0
1.164648329E1,2.366578674E-1,5.219346313E0,-8.020171967E0,9.571872401E0
1.165640129E1,2.368075562E-1,5.087171173E0,-8.215665436E0,9.666051258E0
1.166631829E1,9.954299927E-2,5.032983856E0,-8.317603455E0,9.722312612E0
1.167623629E1,3.951782227E-2,4.970114594E0,-8.362360382E0,9.727932560E0
1.168615429E1,3.951782227E-2,4.881349182E0,-8.458011475E0,9.765607488E0
1.169607229E1,6.391708374E-2,4.699776764E0,-8.560847626E0,9.766273552E0
1.170599029E1,1.142124939E-1,4.519850922E0,-8.687184906E0,9.793328262E0
1.171590829E1,2.185455322E-1,4.414619751E0,-8.750353546E0,9.803331927E0
1.172582629E1,2.911445618E-1,4.187691650E0,-8.819659424E0,9.767697726E0
1.173574329E1,3.474275208E-1,3.928430786E0,-9.018895111E0,9.843461960E0
1.174566129E1,5.505551147E-1,3.677702179E0,-9.159901886E0,9.885970201E0
1.175557929E1,7.310797119E-1,3.260370026E0,-9.355694733E0,9.934460941E0
1.176549729E1,9.440867615E-1,2.951711884E0,-9.612859955E0,1.010004848E1
1.177541529E1,1.193318481E0,2.809208221E0,-9.691745911E0,1.016098414E1
1.178533329E1,1.279239807E0,2.683918762E0,-9.832153931E0,1.027186085E1
1.179525129E1,1.277742920E0,2.616109772E0,-9.951455841E0,1.036861276E1
1.180516829E1,1.214125214E0,2.640958099E0,-1.004231689E1,1.045451521E1
1.181508629E1,1.165027313E0,2.762954407E0,-1.008198441E1,1.051844167E1
1.182500429E1,1.064735870E0,2.879412231E0,-1.009859985E1,1.055492285E1
1.183492229E1,9.241781616E-1,2.922372894E0,-1.012015503E1,1.057411492E1
1.184484029E1,8.533753967E-1,2.949017487E0,-1.007764343E1,1.053488732E1
1.185475829E1,7.191046143E-1,2.919977875E0,-9.990973663E0,1.043374032E1
1.186467629E1,6.132746887E-1,2.899470520E0,-9.863738251E0,1.029933820E1
1.187459429E1,5.116360474E-1,2.790497131E0,-9.768685913E0,1.017230899E1
1.188451129E1,4.766088867E-1,2.674039307E0,-9.731563110E0,1.010351240E1
1.189442929E1,4.686753845E-1,2.550097046E0,-9.640851746E0,9.983419952E0
1.190434729E1,3.538641357E-1,2.409389648E0,-9.578730927E0,9.883443958E0
1.191426529E1,2.365081787E-1,2.202819214E0,-9.545949097E0,9.799667993E0
1.192418329E1,1.923500061E-1,2.029928741E0,-9.445957031E0,9.663524898E0
1.193410129E1,1.966909790E-1,1.950593719E0,-9.373507690E0,9.576332786E0
1.194401929E1,2.466870117E-1,1.939516754E0,-9.325158234E0,9.527914557E0
1.195393729E1,3.239263916E-1,1.977537689E0,-9.327553253E0,9.540379097E0
1.196385429E1,4.156855774E-1,1.912123718E0,-9.292675781E0,9.496464331E0
1.197377229E1,4.346960449E-1,1.741478577E0,-9.222471771E0,9.395514560E0
1.198369029E1,4.290078735E-1,1.599274292E0,-9.187594299E0,9.335610051E0
1.199360829E1,4.933740234E-1,1.559457092E0,-9.244176636E0,9.387764698E0
1.200352629E1,6.861730957E-1,1.545386353E0,-9.322314148E0,9.474417849E0
1.201344429E1,7.900570679E-1,1.357077942E0,-9.350904694E0,9.481838920E0
1.202336229E1,8.077203369E-1,1.189127197E0,-9.347012787E0,9.456906665E0
1.203327929E1,8.315208435E-1,1.038240967E0,-9.360634460E0,9.454673380E0
1.204319729E1,8.180488586E-1,9.494755554E-1,-9.436227264E0,9.519090962E0
1.205311529E1,8.376580811E-1,8.348139954E-1,-9.468859406E0,9.542425473E0
1.206303329E1,8.322692871E-1,7.490423584E-1,-9.524393921E0,9.589985202E0
1.207295129E1,8.925938416E-1,7.367678833E-1,-9.603728943E0,9.673218714E0
1.208286929E1,1.005608826E0,7.464976501E-1,-9.689500580E0,9.770103855E0
1.209278729E1,1.043779449E0,6.900650024E-1,-9.797126770E0,9.876707862E0
1.210270529E1,1.101110229E0,6.216572571E-1,-9.867779846E0,9.948466242E0
1.211262229E1,1.183888092E0,5.357359314E-1,-9.992320862E0,1.007646169E1
1.212254029E1,1.259031830E0,3.469784546E-1,-1.010847931E1,1.019249278E1
1.213245829E1,1.291065216E0,1.559756470E-1,-1.009859985E1,1.018198884E1
1.214237629E1,1.157243500E0,-1.122665405E-2,-1.010443771E1,1.017049655E1
1.215229429E1,1.050665131E0,-8.637039185E-2,-1.020143600E1,1.025576197E1
1.216221229E1,1.101110229E0,-1.197509766E-3,-1.026430527E1,1.032319756E1
1.217213029E1,1.220561829E0,1.278341675E-1,-1.036953644E1,1.044190589E1
1.218204829E1,1.161434784E0,2.418969727E-1,-1.046174469E1,1.052879608E1
1.219196529E1,1.009650421E0,3.366499329E-1,-1.038405624E1,1.043845540E1
1.220188329E1,8.652008057E-1,3.206332397E-1,-1.015009277E1,1.019194591E1
1.221180129E1,7.024891663E-1,2.520758057E-1,-1.011790970E1,1.014539945E1
1.222171929E1,7.015910339E-1,2.365081787E-1,-1.004171814E1,1.006897558E1
1.223163729E1,7.761360168E-1,2.140548706E-1,-9.977351990E0,1.000978318E1
1.224155529E1,8.402027893E-1,2.622546387E-1,-9.974507904E0,1.001326751E1
1.225147329E1,8.436456299E-1,3.362008667E-1,-9.870174866E0,9.911867677E0
1.226139029E1,7.598199463E-1,3.734733582E-1,-9.803264008E0,9.839755785E0
1.227130829E1,6.518943787E-1,3.556604004E-1,-9.704768829E0,9.733139197E0
1.228122629E1,7.080276489E-1,3.644920349E-1,-9.627080383E0,9.659960368E0
1.229114429E1,8.581654358E-1,3.210823059E-1,-9.593550110E0,9.637206311E0
1.230106229E1,9.741741943E-1,2.442919922E-1,-9.610764313E0,9.663099121E0
1.231098029E1,1.012045441E0,1.392105103E-1,-9.559720459E0,9.614149510E0
1.232089829E1,8.842112732E-1,-2.290237427E-2,-9.549242249E0,9.590118957E0
1.233081629E1,7.403604126E-1,-3.314108276E-1,-9.499545593E0,9.534114178E0
1.234073329E1,6.691085815E-1,-4.619393921E-1,-9.437424774E0,9.472385162E0
1.235065129E1,5.821394348E-1,-4.514611816E-1,-9.462123413E0,9.490757768E0
1.236056929E1,4.634362793E-1,-3.454815674E-1,-9.467661896E0,9.485291375E0
1.237048729E1,4.532574463E-1,-1.128652954E-1,-9.542506256E0,9.553931470E0
1.238040529E1,4.397854614E-1,5.972579956E-2,-9.701924744E0,9.712070951E0
1.239032329E1,4.357438660E-1,8.128097534E-2,-9.653575287E0,9.663746434E0
1.240024129E1,3.423381042E-1,-6.915618896E-2,-9.377100220E0,9.383602000E0
1.241015929E1,-4.565505981E-2,-2.992277527E-1,-1.130015121E1,1.130420449E1
1.242007592E1,1.161584473E0,8.351133728E-1,-1.168829407E1,1.177552169E1
1.242999392E1,6.640191650E-1,-2.630030823E-1,-1.338771011E1,1.340674734E1
1.243991192E1,9.770182800E-1,-9.868977356E-1,-8.979976044E0,9.086721169E0
1.244982992E1,8.613088989E-1,-7.568261719E-1,-8.835975494E0,8.910056218E0
1.245974792E1,3.978726196E-1,-1.216969299E-1,-9.834848328E0,9.843645381E0
1.246966592E1,3.863465881E-1,5.318440247E-1,-9.591155090E0,9.613655794E0
1.247958392E1,2.574645996E-1,3.553610229E-1,-9.445208588E0,9.455397122E0
1.248950192E1,2.043251038E-1,2.724334717E-2,-9.448202362E0,9.450450721E0
1.249941892E1,5.710624695E-1,1.212478638E-2,-9.871222687E0,9.887734659E0
1.250933692E1,6.602769470E-1,-7.723937988E-2,-9.882748718E0,9.905082221E0
1.251925492E1,5.688171387E-1,-1.347198486E-1,-9.459728394E0,9.477772083E0
1.252917292E1,3.857478333E-1,-1.308279419E-1,-9.654922485E0,9.663511036E0
1.253909092E1,3.314108276E-1,-9.834548950E-2,-9.756561127E0,9.762683545E0
1.254900892E1,3.174897766E-1,-1.134640503E-1,-9.680668945E0,9.686538343E0
1.255892692E1,2.294728088E-1,-9.565109253E-2,-9.674681396E0,9.677875130E0
1.256884492E1,3.462300110E-1,-5.254074097E-2,-9.678273926E0,9.684607474E0
1.257876292E1,4.999603271E-1,-6.286926270E-2,-9.681866455E0,9.694970393E0
1.258867992E1,4.900808716E-1,-6.556365967E-2,-9.672885132E0,9.685514164E0
1.259859792E1,4.923262024E-1,-9.340576172E-2,-9.635013885E0,9.648036189E0
1.260851592E1,4.831951904E-1,-9.819580078E-2,-9.631421356E0,9.644034288E0
1.261843392E1,4.427792358E-1,-1.374142456E-1,-9.661209412E0,9.672326681E0
1.262835192E1,4.047583008E-1,-2.106120300E-1,-9.686656494E0,9.697396596E0
1.263826992E1,4.273612976E-1,-1.248403931E-1,-9.673483887E0,9.683724145E0
1.264818792E1,4.550537109E-1,-1.037342834E-1,-9.652826843E0,9.664103722E0
1.265810592E1,4.363426208E-1,-9.864486694E-2,-9.635013885E0,9.645393629E0
1.266802292E1,4.495152283E-1,-7.963439941E-2,-9.647138672E0,9.657934051E0
1.267794092E1,4.164340210E-1,-8.262817383E-2,-9.644743652E0,9.654083324E0
1.268785892E1,3.882925415E-1,-1.023870850E-1,-9.651779022E0,9.660129011E0
1.269777692E1,4.065545654E-1,-9.490264893E-2,-9.628277893E0,9.637324749E0
1.270769492E1,4.249662781E-1,-1.585203552E-1,-9.587412872E0,9.598135789E0
1.271761292E1,4.671784973E-1,-2.227368164E-1,-9.616153107E0,9.630071028E0
1.272753092E1,3.977229309E-1,-2.395019531E-2,-9.617500305E0,9.625750322E0
1.273744892E1,4.818479919E-1,-2.469863892E-2,-9.566157074E0,9.578316589E0
1.274736692E1,4.629872131E-1,6.227050781E-2,-9.547445984E0,9.558868112E0
1.275728392E1,4.104464722E-1,-1.487905884E-1,-9.591753845E0,9.601684580E0
1.276720192E1,3.091072083E-1,6.137237549E-3,-9.640103302E0,9.645059699E0
1.277711992E1,4.005670166E-1,-1.490899658E-1,-9.659712524E0,9.669163759E0
1.278703792E1,3.552113342E-1,-9.056167603E-2,-9.732910309E0,9.739811065E0
1.279695592E1,3.559597778E-1,-3.592529297E-2,-9.731263733E0,9.737838150E0
1.280687392E1,2.386038208E-1,-1.552272034E-1,-9.626930695E0,9.631138140E0
1.281679192E1,2.806663513E-1,-1.441502380E-1,-9.689799957E0,9.694935590E0
1.282670992E1,2.740800476E-1,-1.287322998E-1,-9.685009918E0,9.689742463E0
1.283662692E1,2.254312134E-1,-1.817221069E-1,-9.799072723E0,9.803349856E0
1.284654492E1,2.347119141E-1,-7.768844604E-2,-9.730066223E0,9.733206763E0
1.285646292E1,2.436932373E-1,-6.331832886E-2,-9.719438324E0,9.722699056E0
1.286638092E1,2.504292297E-1,-5.658233643E-2,-9.689051514E0,9.692452507E0
1.287629892E1,2.588117981E-1,-4.565505981E-2,-9.619146881E0,9.622736339E0
1.288621692E1,2.526745605E-1,-3.128494263E-2,-9.614207153E0,9.617577781E0
1.289613492E1,1.860630798E-1,-1.327738953E-1,-9.780062256E0,9.782733059E0
1.290605292E1,2.369572449E-1,-6.706054688E-2,-9.652677155E0,9.655818044E0
1.291597092E1,2.282752991E-1,-2.859054565E-2,-9.682315521E0,9.685048316E0
1.292588792E1,1.881587219E-1,-1.041833496E-1,-9.761500854E0,9.763869971E0
1.293580592E1,1.995350647E-1,-7.005432129E-2,-9.699978790E0,9.702283771E0
1.294572392E1,2.109114075E-1,-7.289840698E-2,-9.680070190E0,9.682642031E0
1.295564192E1,2.041754150E-1,-6.107299805E-2,-9.611213379E0,9.613575824E0
1.296555992E1,2.240840149E-1,1.032852173E-2,-9.545050964E0,9.547686538E0
1.297547792E1,1.101708984E-1,-1.734892273E-1,-9.814790039E0,9.816941461E0
1.298539592E1,1.290316772E-1,-9.954299927E-2,-9.752519531E0,9.753881032E0
1.299531392E1,1.360670471E-1,-7.514373779E-2,-9.632618866E0,9.633872899E0
1.300523192E1,1.594184875E-1,-1.020877075E-1,-9.685458984E0,9.687308805E0
1.301514892E1,1.442999268E-1,-7.858657837E-2,-9.691446533E0,9.692839327E0
1.302506692E1,1.564247131E-1,-1.058299255E-1,-9.685458984E0,9.687300161E0
1.303498492E1,1.460961914E-1,-6.855743408E-2,-9.690099335E0,9.691443099E0
1.304490292E1,1.486408997E-1,-9.505233765E-2,-9.682016144E0,9.683623582E0
1.305482092E1,1.309776306E-1,-7.274871826E-2,-9.676926727E0,9.678086505E0
1.306473892E1,1.254391479E-1,-7.409591675E-2,-9.709409180E0,9.710502140E0
1.307465692E1,1.378633118E-1,-7.409591675E-2,-9.688752136E0,9.690016226E0
1.308457492E1,1.303788757E-1,-5.224136353E-2,-9.678273926E0,9.679293052E0
1.309449192E1,1.306782532E-1,-6.885681152E-2,-9.664502563E0,9.665631271E0
1.310440992E1,1.342707825E-1,-6.646179199E-2,-9.668993225E0,9.670153866E0
1.311432792E1,1.142124939E-1,-8.936416626E-2,-9.695188751E0,9.696273272E0
1.312424592E1,1.143621826E-1,-8.217910767E-2,-9.645492096E0,9.646520092E0
1.313416392E1,8.128097534E-2,-9.071136475E-2,-9.680070190E0,9.680836433E0
1.314408192E1,1.109193420E-1,-9.160949707E-2,-9.682465210E0,9.683533856E0
1.315399992E1,1.139131165E-1,-5.867797852E-2,-9.674831085E0,9.675679606E0
1.316391792E1,1.002914429E-1,-1.046324158E-1,-9.657167816E0,9.658255357E0
1.317383592E1,1.116677856E-1,-6.376739502E-2,-9.670789490E0,9.671644396E0
1.318375292E1,1.227447510E-1,-6.242019653E-2,-9.684111786E0,9.685090791E0
1.319367092E1,1.143621826E-1,-6.077362061E-2,-9.676627350E0,9.677493943E0
1.320358892E1,9.295669556E-2,-1.086740112E-1,-9.667047272E0,9.668104982E0
1.321350692E1,8.726852417E-2,-7.259902954E-2,-9.669591980E0,9.670258294E0
1.322342492E1,9.295669556E-2,-6.870712280E-2,-9.682764587E0,9.683454532E0
1.323334292E1,8.906478882E-2,-8.337661743E-2,-9.667945404E0,9.668715144E0
1.324326092E1,8.681945801E-2,-8.098159790E-2,-9.691147156E0,9.691874371E0
1.325317892E1,8.187973022E-2,-9.026229858E-2,-9.670939178E0,9.671706993E0
1.326309692E1,9.789642334E-2,-7.918533325E-2,-9.658664703E0,9.659485384E0
1.327301492E1,1.134640503E-1,-4.969665527E-2,-9.675280151E0,9.676073060E0
1.328293192E1,9.729766846E-2,-6.586303711E-2,-9.685309296E0,9.686021935E0
1.329284992E1,7.843688965E-2,-7.828720093E-2,-9.663155365E0,9.663790811E0
1.330276792E1,8.487350464E-2,-8.322692871E-2,-9.672286377E0,9.673016799E0
1.331268592E1,7.484436035E-2,-7.873626709E-2,-9.671238556E0,9.671848649E0
1.332260392E1,7.454498291E-2,-7.005432129E-2,-9.662257233E0,9.662798735E0
1.333252192E1,7.439529419E-2,-7.619155884E-2,-9.672585754E0,9.673171920E0
1.334243992E1,6.601272583E-2,-1.005908203E-1,-9.663155365E0,9.663904377E0
1.335235792E1,7.963439941E-2,-7.798782349E-2,-9.670041046E0,9.670683408E0
1.336227592E1,6.840774536E-2,-4.355941772E-2,-9.643097076E0,9.643438094E0
1.337219292E1,6.571334839E-2,-7.185058594E-2,-9.655371552E0,9.655862496E0
1.338211092E1,4.879852295E-2,-1.010398865E-1,-9.653275909E0,9.653928016E0
1.339202892E1,4.340972900E-2,-7.364685059E-2,-9.659562836E0,9.659941120E0
1.340194692E1,9.505233765E-2,-2.529739380E-2,-9.655820618E0,9.656321593E0
1.341186550E1,1.386117554E-1,-2.694396973E-3,-9.584568787E0,9.585571412E0
1.342178350E1,4.939727783E-2,-9.475296021E-2,-9.669442291E0,9.670032701E0
1.343170150E1,5.718109131E-2,-8.517288208E-2,-9.734107819E0,9.734648382E0
1.344161950E1,2.933898926E-2,-6.286926270E-2,-9.635462952E0,9.635712720E0
1.345153750E1,4.086502075E-2,-7.679031372E-2,-9.671687622E0,9.672078792E0
1.346145450E1,4.116439819E-2,-7.244934082E-2,-9.633966064E0,9.634326419E0
1.347137250E1,4.056564331E-2,-8.397537231E-2,-9.585167542E0,9.585621223E0
1.348129050E1,4.191284180E-3,-7.694000244E-2,-9.707912292E0,9.708218086E0
1.349120850E1,-2.395019531E-3,-4.191284180E-2,-9.711355133E0,9.711445873E0
1.350112650E1,7.185058594E-3,-5.927673340E-2,-9.715696106E0,9.715879589E0
1.351104450E1,-2.095642090E-3,-4.176315308E-2,-9.700876923E0,9.700967046E0
1.352096250E1,-1.511856079E-2,-6.481521606E-2,-9.695787506E0,9.696015932E0
1.353088050E1,1.152603149E-2,-5.837860107E-2,-9.710606689E0,9.710789010E0
1.354079850E1,-1.466949463E-2,-7.918533325E-2,-9.690698090E0,9.691032709E0
1.355071550E1,-1.676513672E-2,-6.676116943E-2,-9.681118011E0,9.681362718E0
1.356063350E1,-2.005828857E-2,-6.541397095E-2,-9.697434082E0,9.697675448E0
1.357055150E1,-2.664459229E-2,-5.792953491E-2,-9.694140930E0,9.694350630E0
1.358046950E1,-1.631607056E-2,-6.481521606E-2,-9.676028595E0,9.676259432E0
1.359038750E1,-2.739303589E-2,-6.242019653E-2,-9.673483887E0,9.673724059E0
1.360030550E1,-4.236190796E-2,-7.020401001E-2,-9.679770813E0,9.680118084E0
1.361022350E1,-2.694396973E-2,-5.373825073E-2,-9.663454742E0,9.663641722E0
1.362014150E1,-1.466949463E-2,-2.963836670E-2,-9.588311005E0,9.588368034E0
1.363005950E1,-8.397537231E-2,-9.160949707E-2,-9.742640076E0,9.743432650E0
1.363997650E1,-6.421646118E-2,-8.023315430E-2,-9.709409180E0,9.709953024E0
1.364989450E1,-4.580474854E-2,-5.568420410E-2,-9.674382019E0,9.674650705E0
1.365981250E1,-3.981719971E-2,-6.346801758E-2,-9.669591980E0,9.669882246E0
1.366973050E1,-3.532653809E-2,-4.819976807E-2,-9.629475403E0,9.629660831E0
1.367964850E1,-4.445755005E-2,-6.242019653E-2,-9.660161591E0,9.660465554E0
1.368956650E1,-5.179229736E-2,-7.140151978E-2,-9.685159607E0,9.685561276E0
1.369948450E1,-7.289840698E-2,-7.080276489E-2,-9.685758362E0,9.686291460E0
1.370940250E1,-6.885681152E-2,-6.376739502E-2,-9.711654510E0,9.712107952E0
1.371932050E1,-6.706054688E-2,-5.852828979E-2,-9.670789490E0,9.671199100E0
1.372923850E1,-6.915618896E-2,-6.541397095E-2,-9.671088867E0,9.671557343E0
1.373915550E1,-6.706054688E-2,-6.256988525E-2,-9.679321747E0,9.679756277E0
1.374907350E1,-7.604187012E-2,-5.373825073E-2,-9.674382019E0,9.674830108E0
1.375899150E1,-7.753875732E-2,-6.960525513E-2,-9.662257233E0,9.662819049E0
1.376890950E1,-7.708969116E-2,-5.957611084E-2,-9.658365326E0,9.658856708E0
1.377882750E1,-7.694000244E-2,-4.760101318E-2,-9.608818359E0,9.609244293E0
1.378874550E1,-1.068777466E-1,-6.840774536E-2,-9.726623383E0,9.727451100E0
1.379866350E1,-1.119671631E-1,-6.795867920E-2,-9.736951904E0,9.737832788E0
1.380858150E1,-8.113128662E-2,-6.212081909E-2,-9.657616882E0,9.658157440E0
1.381849950E1,-9.894424438E-2,-5.254074097E-2,-9.690548401E0,9.691195943E0
1.382841750E1,-9.490264893E-2,-6.047424316E-2,-9.686656494E0,9.687310137E0
1.383833450E1,-1.014889526E-1,-6.242019653E-2,-9.679471436E0,9.680204727E0
1.384825250E1,-1.046324158E-1,-6.361770630E-2,-9.689949646E0,9.690723363E0
1.385817050E1,-1.031355286E-1,-6.631210327E-2,-9.672286377E0,9.673063527E0
1.386808850E1,-1.038839722E-1,-6.496490479E-2,-9.677974548E0,9.678750109E0
1.387800650E1,-1.100212097E-1,-6.316864014E-2,-9.677375793E0,9.678207334E0
1.388792450E1,-1.052311707E-1,-4.445755005E-2,-9.684411163E0,9.685084907E0
1.389784250E1,-1.085243225E-1,-4.805007935E-2,-9.674831085E0,9.675559047E0
1.390776050E1,-1.167572021E-1,-5.792953491E-2,-9.676028595E0,9.676906399E0
1.391767850E1,-1.158590698E-1,-5.822891235E-2,-9.680519257E0,9.681387659E0
1.392759650E1,-1.212478638E-1,-5.927673340E-2,-9.673633575E0,9.674574995E0
1.393751350E1,-1.184037781E-1,-5.912704468E-2,-9.672885132E0,9.673790479E0
1.394743150E1,-1.142124939E-1,-6.586303711E-2,-9.668394470E0,9.669293359E0
1.395734950E1,-1.190025330E-1,-6.900650024E-2,-9.673034821E0,9.674012928E0
1.396726750E1,-1.276844788E-1,-6.885681152E-2,-9.686357117E0,9.687443356E0
1.397718550E1,-1.204994202E-1,-5.044509888E-2,-9.685159607E0,9.686040545E0
1.398710350E1,-1.014889526E-1,-2.978805542E-2,-9.692194977E0,9.692772091E0
1.399702150E1,-8.906478882E-2,-2.275268555E-2,-9.699230347E0,9.699665950E0
1.400693950E1,-1.191522217E-1,-2.409988403E-2,-9.681866455E0,9.682629607E0
1.401685750E1,-1.435514832E-1,-7.259902954E-2,-9.678573303E0,9.679910063E0
1.402677450E1,-4.460723877E-2,-8.322692871E-2,-9.713151398E0,9.713610379E0
1.403669250E1,1.216969299E-1,9.041198730E-2,-9.843530273E0,9.844697695E0
1.404661050E1,-2.154020691E-1,-1.598675537E-1,-9.657766571E0,9.661491129E0
1.405652850E1,-1.938468933E-1,-6.930587769E-2,-9.714648285E0,9.716829278E0
1.406644650E1,-3.817062378E-2,1.062789917E-2,-9.894274750E0,9.894354086E0
1.407636450E1,-6.706054688E-2,-2.439926147E-2,-9.918524323E0,9.918781033E0
1.408628250E1,-1.216969299E-1,-6.511459351E-2,-9.864337006E0,9.865302561E0
1.409620050E1,-1.071771240E-1,-4.251159668E-2,-9.949360199E0,9.950028268E0
1.410611850E1,-1.197509766E-1,1.526824951E-2,-1.011401779E1,1.011473822E1
1.411603650E1,-1.347198486E-2,-3.891906738E-3,-1.042537033E1,1.042537976E1
1.412595350E1,-2.439926147E-1,-1.342707825E-1,-1.038495438E1,1.038868800E1
1.413587150E1,-5.646258545E-1,2.215393066E-2,-1.025233017E1,1.026789010E1
1.414578950E1,-6.021977234E-1,1.788780212E-1,-1.036624329E1,1.038526068E1
1.415570750E1,-7.590715027E-1,1.721420288E-2,-1.053134995E1,1.055868446E1
1.416562550E1,-6.945556641E-1,2.350112915E-2,-1.098415833E1,1.100612075E1
1.417554350E1,-4.010160828E-1,-4.790039062E-3,-1.181088913E1,1.181769601E1
1.418546150E1,4.340972900E-2,-2.993774414E-2,-1.235904922E1,1.235916172E1
1.419537950E1,1.731898499E-1,-1.095721436E-1,-1.273162445E1,1.273327381E1
1.420529750E1,8.936416626E-2,-1.064286804E-1,-1.297277298E1,1.297351733E1
1.421521550E1,-1.257385254E-2,7.409591675E-2,-1.305225769E1,1.305247406E1
1.422513250E1,-1.149609375E-1,1.992356873E-1,-1.300914734E1,1.301118078E1
1.423505050E1,-2.905458069E-1,2.644999695E-1,-1.286754181E1,1.287353911E1
1.424496850E1,-2.613565063E-1,5.733078003E-2,-1.263178207E1,1.263461564E1
1.425488650E1,1.261875916E-1,-4.791535950E-1,-1.207419159E1,1.208435410E1
1.426480450E1,2.799179077E-2,5.628295898E-2,-1.141466309E1,1.141483617E1
1.427472250E1,-4.861889648E-1,2.401007080E-1,-1.104388412E1,1.105718792E1
1.428464050E1,-9.481283569E-1,6.114784241E-1,-1.052925430E1,1.058952546E1
1.429455850E1,-1.382974091E0,1.117575989E0,-9.873617706E0,1.003244337E1
1.430447650E1,-1.912423096E0,1.873354340E0,-9.858050079E0,1.021508541E1
1.431439450E1,-2.279759216E0,2.090253296E0,-1.030846344E1,1.076247552E1
1.432431150E1,-2.044149170E0,1.958976288E0,-8.956175537E0,9.393040731E0
1.433422950E1,-1.630259857E0,2.532583466E0,-8.019573212E0,8.566520922E0
1.434414750E1,-1.558708649E0,2.506088562E0,-7.708669739E0,8.254310490E0
1.435406550E1,-1.675016785E0,2.669548645E0,-7.557035065E0,8.187853819E0
1.436398350E1,-1.710043945E0,2.829715576E0,-7.330406342E0,8.041541996E0
1.437390150E1,-1.711091766E0,3.039130096E0,-7.279661865E0,8.072027233E0
1.438381950E1,-1.665736084E0,3.409459991E0,-7.311844940E0,8.237849875E0
1.439373750E1,-1.377585297E0,3.684887238E0,-7.215295715E0,8.218067137E0
1.440365550E1,-1.237776031E0,3.916904755E0,-7.343728638E0,8.414545898E0
1.441357313E1,-1.312171326E0,4.227209473E0,-7.387587433E0,8.612057919E0
1.442349013E1,-1.407822418E0,4.573289795E0,-7.341932373E0,8.763613095E0
1.443340813E1,-1.478475494E0,4.904101868E0,-7.351961517E0,8.960326058E0
1.444332613E1,-1.669627991E0,5.232518921E0,-7.415429535E0,9.227974159E0
1.445324413E1,-2.008373566E0,5.601501617E0,-7.267836456E0,9.393180053E0
1.446316213E1,-2.423759766E0,6.145470428E0,-7.102879486E0,9.700119339E0
1.447308013E1,-2.811902618E0,6.670129395E0,-6.931036835E0,1.002181092E1
1.448299812E1,-2.989283752E0,7.059170380E0,-6.704857178E0,1.018443978E1
1.449291613E1,-2.988984375E0,7.409292297E0,-6.674620056E0,1.041067687E1
1.450283413E1,-2.966231689E0,7.684270477E0,-6.764582977E0,1.065861746E1
1.451275213E1,-2.765499115E0,7.769443359E0,-6.835984497E0,1.071181215E1
1.452267013E1,-2.400707703E0,7.701035614E0,-6.760391693E0,1.052483933E1
1.453258713E1,-2.145787811E0,7.742349701E0,-6.715185699E0,1.047101252E1
1.454250513E1,-1.981429596E0,7.914342041E0,-6.471193085E0,1.041341506E1
1.455242313E1,-1.922452240E0,8.042774963E0,-6.013894043E0,1.022491923E1
1.456234113E1,-1.952539673E0,7.919730835E0,-5.470074921E0,9.821215165E0
1.457225913E1,-2.157014465E0,7.482340393E0,-5.064268799E0,9.288969137E0
1.458217713E1,-2.072290649E0,7.752378845E0,-4.586462402E0,9.242802803E0
1.459209513E1,-1.986668701E0,7.982899475E0,-4.182602234E0,9.228634677E0
1.460201313E1,-1.900597687E0,8.179740143E0,-3.878883820E0,9.250197839E0
1.461193113E1,-1.771116943E0,8.383616180E0,-3.632945251E0,9.306995578E0
1.462184913E1,-1.626517639E0,8.510103149E0,-3.453468475E0,9.327049896E0
1.463176613E1,-1.384021912E0,8.500074005E0,-3.225941620E0,9.196383750E0
1.464168413E1,-1.248852997E0,8.406817932E0,-2.963986359E0,9.001079751E0
1.465160213E1,-1.255588989E0,8.266260223E0,-2.763702850E0,8.805998821E0
1.466152013E1,-1.366508331E0,8.254584503E0,-2.466271362E0,8.722843847E0
1.467143813E1,-1.444047089E0,8.361013184E0,-2.125729523E0,8.747030322E0
1.468135613E1,-1.437460785E0,8.491392059E0,-1.905537415E0,8.820493493E0
1.469127413E1,-1.368753662E0,8.661588135E0,-1.757195892E0,8.943396056E0
1.470119213E1,-1.272503815E0,8.844956818E0,-1.572180634E0,9.073272784E0
1.471111013E1,-1.200503540E0,8.959019623E0,-1.327289886E0,9.136024288E0
1.472102813E1,-1.138382721E0,8.997040558E0,-1.059796143E0,9.130488589E0
1.473094513E1,-1.045126648E0,8.911568298E0,-7.963439941E-1,9.007913355E0
1.474086313E1,-9.542655945E-1,8.827592926E0,-6.045927429E-1,8.899581568E0
1.475078113E1,-8.042774963E-1,8.679550781E0,-3.832031250E-1,8.725153792E0
1.476069913E1,-7.138655090E-1,8.544082489E0,-9.969268799E-2,8.574432236E0
1.477061713E1,-7.149133301E-1,8.486003265E0,1.357676697E-1,8.517146550E0
1.478053513E1,-7.226971436E-1,8.487500153E0,3.923341370E-1,8.527243170E0
1.479045313E1,-8.202941895E-1,8.554710388E0,4.805007935E-1,8.607370876E0
1.480037113E1,-8.918453979E-1,8.641080780E0,7.189549255E-1,8.716682938E0
1.481028913E1,-9.484277344E-1,8.679850159E0,9.207353210E-1,8.779924116E0
1.482020713E1,-9.292675781E-1,8.716374207E0,1.096619568E0,8.834098257E0
1.483012512E1,-9.286688232E-1,8.733139343E0,1.313817902E0,8.880105070E0
1.484004213E1,-1.012943573E0,8.806935883E0,1.556313629E0,9.000571450E0
1.484996013E1,-1.078207855E0,8.920699310E0,1.688339081E0,9.142860450E0
1.485987813E1,-1.130598907E0,8.973539429E0,1.784588928E0,9.218862262E0
1.486979612E1,-1.129102020E0,9.073381805E0,1.964215393E0,9.351966150E0
1.487971413E1,-1.157692566E0,9.163045349E0,2.133513336E0,9.479110259E0
1.488963213E1,-1.234782257E0,9.127718811E0,2.281256104E0,9.489155248E0
1.489955013E1,-1.243164825E0,9.072783051E0,2.522853699E0,9.498717906E0
1.490946813E1,-1.308578796E0,9.134903870E0,2.687960358E0,9.611658445E0
1.491938613E1,-1.338067474E0,9.157506866E0,2.814746704E0,9.673321848E0
1.492930413E1,-1.334774323E0,9.160500641E0,2.925965424E0,9.708638841E0
1.493922213E1,-1.322649536E0,9.215137024E0,2.973117371E0,9.772797914E0
1.494913913E1,-1.307980042E0,9.255103912E0,2.977308655E0,9.809797503E0
1.495905713E1,-1.305435333E0,9.366622009E0,2.939587097E0,9.903481286E0
1.496897513E1,-1.304986267E0,9.521998901E0,2.878364410E0,1.003276801E1
1.497889313E1,-1.279389496E0,9.605674896E0,2.831062775E0,1.009558043E1
1.498881113E1,-1.133293304E0,9.618548126E0,2.809058533E0,1.008422687E1
1.499872913E1,-1.039139099E0,9.578880615E0,2.815345459E0,1.003797459E1
1.500864713E1,-1.011596375E0,9.585616608E0,2.821183319E0,1.004322898E1
1.501856513E1,-1.011446686E0,9.629325714E0,2.787802734E0,1.007565294E1
1.502848313E1,-1.012943573E0,9.642498322E0,2.805016937E0,1.009316346E1
1.503840113E1,-1.042432251E0,9.652677155E0,2.854114838E0,1.011962513E1
1.504831913E1,-1.063688049E0,9.604178009E0,2.949017487E0,1.010288927E1
1.505823613E1,-1.043779449E0,9.475445709E0,2.984643402E0,9.989076192E0
1.506815413E1,-1.017134857E0,9.372459869E0,2.998714142E0,9.892919378E0
1.507807213E1,-9.611512756E-1,9.346114655E0,3.012186127E0,9.866455097E0
1.508799013E1,-9.473799133E-1,9.354646912E0,2.994522858E0,9.867832320E0
1.509790813E1,-9.505233765E-1,9.380992126E0,3.024161224E0,9.902123968E0
1.510782613E1,-1.009650421E0,9.420959015E0,3.078348541E0,9.962434064E0
1.511774413E1,-1.097667389E0,9.417366486E0,3.097209320E0,9.974185220E0
1.512766213E1,-1.104553070E0,9.460626526E0,3.098556519E0,1.001621407E1
1.513758013E1,-1.050964508E0,9.442065125E0,3.079096985E0,9.986889328E0
1.514749813E1,-9.864486694E-1,9.439071350E0,3.050656128E0,9.968733708E0
1.515741613E1,-9.562115479E-1,9.348060608E0,3.099005585E0,9.894665900E0
1.516733313E1,-9.702822876E-1,9.256600800E0,3.143612823E0,9.823869282E0
1.517725113E1,-1.040935364E0,9.141490173E0,3.119662628E0,9.715075086E0
1.518716913E1,-1.080153809E0,9.105564880E0,3.072061615E0,9.670346768E0
1.519708713E1,-1.041234741E0,9.131610718E0,3.017724609E0,9.673528100E0
1.520700513E1,-1.027613068E0,9.211095428E0,2.902613983E0,9.712128271E0
1.521692312E1,-9.930349731E-1,9.240584106E0,2.819087677E0,9.711939478E0
1.522684113E1,-9.735754395E-1,9.258546753E0,2.761457520E0,9.710519283E0
1.523675913E1,-9.731263733E-1,9.248816986E0,2.687960358E0,9.680533119E0
1.524667713E1,-9.949809265E-1,9.235644379E0,2.613714752E0,9.649798907E0
1.525659513E1,-1.025966492E0,9.252708893E0,2.519410858E0,9.644307138E0
1.526651313E1,-1.068627777E0,9.306596832E0,2.464924164E0,9.686617627E0
1.527643013E1,-1.113983459E0,9.411229248E0,2.394570465E0,9.774771753E0
1.528634813E1,-1.117575989E0,9.497150574E0,2.335443420E0,9.843736134E0
1.529626613E1,-1.123264160E0,9.542805634E0,2.322121124E0,9.885297580E0
1.530618413E1,-1.114432526E0,9.520801392E0,2.275118866E0,9.852095455E0
1.531610213E1,-1.070274353E0,9.465715942E0,2.260299683E0,9.790516848E0
1.532602013E1,-1.041085052E0,9.398356018E0,2.268382874E0,9.724120258E0
1.533593813E1,-1.078058167E0,9.371561737E0,2.246228943E0,9.697109016E0
1.534585613E1,-1.082249451E0,9.397607574E0,2.261646881E0,9.726321947E0
1.535577413E1,-1.081950073E0,9.388476563E0,2.222578125E0,9.708447953E0
1.536569213E1,-1.124012604E0,9.402696991E0,2.136956177E0,9.707764765E0
1.537561013E1,-1.162482605E0,9.483528900E0,2.115101624E0,9.785823475E0
1.538552813E1,-1.208736420E0,9.549092560E0,2.094743958E0,9.850592099E0
1.539544513E1,-1.274000702E0,9.602232056E0,2.095642090E0,9.910482027E0
1.540536313E1,-1.335822144E0,9.589059448E0,2.105371857E0,9.907929782E0
1.541528142E1,-1.372495880E0,9.569599915E0,2.080074463E0,9.888766214E0
1.542519942E1,-1.385818176E0,9.558522949E0,2.044149170E0,9.872405929E0
1.543511742E1,-1.388362885E0,9.545500031E0,2.045047302E0,9.860341820E0
1.544503542E1,-1.438658295E0,9.580527191E0,1.972897339E0,9.886787287E0
1.545495342E1,-1.404678955E0,9.711654510E0,1.929188232E0,1.000055616E1
1.546487142E1,-1.369202728E0,9.788744202E0,1.940863953E0,1.007279415E1
1.547478942E1,-1.390907593E0,9.797575836E0,1.961670685E0,1.008837292E1
1.548470742E1,-1.429527283E0,9.747280426E0,2.071093140E0,1.006689877E1
1.549462542E1,-1.480720825E0,9.656119995E0,2.125879211E0,9.997627216E0
1.550454242E1,-1.530716858E0,9.578581238E0,2.104773102E0,9.925844168E0
1.551446042E1,-1.543739777E0,9.582173767E0,2.099384308E0,9.930186356E0
1.552437842E1,-1.567091217E0,9.578281860E0,2.133363647E0,9.937328551E0
1.553429642E1,-1.603465576E0,9.592502289E0,2.133513336E0,9.956861010E0
1.554421442E1,-1.587748260E0,9.584269409E0,2.183060303E0,9.957154058E0
1.555413242E1,-1.542392578E0,9.477840729E0,2.155667267E0,9.841511119E0
1.556405042E1,-1.490749969E0,9.417815552E0,2.120041351E0,9.767914853E0
1.557396842E1,-1.454525299E0,9.438173218E0,2.131118317E0,9.784499109E0
1.558388642E1,-1.493743744E0,9.448352051E0,2.154769135E0,9.805389175E0
1.559380442E1,-1.558259583E0,9.461075592E0,2.187850342E0,9.834979075E0
1.560372242E1,-1.601369934E0,9.483079834E0,2.222578125E0,9.870817713E0
1.561363942E1,-1.648821259E0,9.468260651E0,2.230960693E0,9.866293980E0
1.562355742E1,-1.674717407E0,9.460626526E0,2.241139526E0,9.865639312E0
1.563347542E1,-1.650767212E0,9.446855164E0,2.261946259E0,9.853146997E0
1.564339342E1,-1.640139313E0,9.444160767E0,2.274969177E0,9.851787366E0
1.565331142E1,-1.638043671E0,9.457033997E0,2.263293457E0,9.861094075E0
1.566322942E1,-1.637893982E0,9.484277344E0,2.226470032E0,9.878835064E0
1.567314742E1,-1.613794098E0,9.563163300E0,2.226769409E0,9.950724882E0
1.568306542E1,-1.618434448E0,9.607171783E0,2.257455597E0,1.000065925E1
1.569298342E1,-1.623972931E0,9.572593689E0,2.250719604E0,9.966823805E0
1.570290142E1,-1.619182892E0,9.509275360E0,2.264640656E0,9.908414021E0
1.571281942E1,-1.638043671E0,9.475445709E0,2.311942291E0,9.890011912E0
1.572273742E1,-1.671873322E0,9.486372986E0,2.307301941E0,9.905053007E0
1.573265542E1,-1.690434723E0,9.514514465E0,2.336042175E0,9.941863412E0
1.574257242E1,-1.655856628E0,9.554930420E0,2.325863342E0,9.972371673E0
1.575249042E1,-1.583856354E0,9.549391937E0,2.311942291E0,9.952113568E0
1.576240842E1,-1.503323822E0,9.485325165E0,2.307601318E0,9.877064333E0
1.577232642E1,-1.446142731E0,9.422455902E0,2.274071045E0,9.800275667E0
1.578224442E1,-1.284179535E0,9.358688507E0,1.990410919E0,9.653802529E0
1.579216242E1,-1.071771240E0,9.577832794E0,1.772913208E0,9.799326297E0
1.580208042E1,-1.101708984E0,9.665251007E0,1.794618073E0,9.891991394E0
1.581199842E1,-1.280886383E0,9.509125671E0,2.180665283E0,9.839687090E0
1.582191642E1,-1.509760437E0,9.386680298E0,2.347418518E0,9.792829892E0
1.583183442E1,-1.547182617E0,9.305848389E0,2.355950775E0,9.723327226E0
1.584175242E1,-1.368903351E0,9.267079010E0,2.270029449E0,9.638759436E0